#K-Path(1/A) Energy-Level(eV)
# NKPTS & NBANDS: 140  48
# Band-Index:    1
   0.00000    -74.866616
   0.05995    -74.866606
   0.11990    -74.866583
   0.17985    -74.866549
   0.23980    -74.866505
   0.29976    -74.866453
   0.35971    -74.866392
   0.41966    -74.866326
   0.47961    -74.866253
   0.53956    -74.866175
   0.59951    -74.866097
   0.65946    -74.866019
   0.71941    -74.865943
   0.77936    -74.865871
   0.83931    -74.865806
   0.89927    -74.865754
   0.95922    -74.865711
   1.01917    -74.865676
   1.07912    -74.865653
   1.13907    -74.865646
   1.13907    -74.865646
   1.18291    -74.865648
   1.22676    -74.865658
   1.27060    -74.865674
   1.31445    -74.865693
   1.35829    -74.865716
   1.40214    -74.865740
   1.44598    -74.865767
   1.48983    -74.865797
   1.53367    -74.865826
   1.57752    -74.865854
   1.62136    -74.865879
   1.66521    -74.865906
   1.70905    -74.865929
   1.75290    -74.865948
   1.79674    -74.865963
   1.84059    -74.865974
   1.88443    -74.865981
   1.92828    -74.865983
   1.97212    -74.865982
   1.97212    -74.865982
   2.01176    -74.865977
   2.05140    -74.865968
   2.09104    -74.865957
   2.13068    -74.865941
   2.17031    -74.865922
   2.20995    -74.865900
   2.24959    -74.865876
   2.28923    -74.865852
   2.32886    -74.865826
   2.36850    -74.865799
   2.40814    -74.865773
   2.44778    -74.865748
   2.48742    -74.865726
   2.52705    -74.865704
   2.56669    -74.865685
   2.60633    -74.865668
   2.64597    -74.865655
   2.68560    -74.865647
   2.72524    -74.865645
   2.72524    -74.865645
   2.78843    -74.865652
   2.85162    -74.865677
   2.91481    -74.865715
   2.97800    -74.865762
   3.04119    -74.865816
   3.10438    -74.865875
   3.16757    -74.865942
   3.23076    -74.866015
   3.29395    -74.866093
   3.35714    -74.866172
   3.42033    -74.866249
   3.48352    -74.866322
   3.54671    -74.866389
   3.60990    -74.866452
   3.67309    -74.866504
   3.73628    -74.866548
   3.79947    -74.866583
   3.86266    -74.866606
   3.92585    -74.866616
   3.92585    -74.866616
   4.00933    -74.866602
   4.09281    -74.866568
   4.17629    -74.866519
   4.25978    -74.866467
   4.34326    -74.866417
   4.42674    -74.866368
   4.51023    -74.866324
   4.59371    -74.866291
   4.67719    -74.866277
   4.76067    -74.866274
   4.84416    -74.866287
   4.92764    -74.866314
   5.01112    -74.866359
   5.09460    -74.866412
   5.17809    -74.866469
   5.26157    -74.866522
   5.34505    -74.866564
   5.42854    -74.866589
   5.51202    -74.866597
   5.51202    -74.865983
   5.60639    -74.865979
   5.70077    -74.865969
   5.79515    -74.865950
   5.88952    -74.865927
   5.98390    -74.865906
   6.07828    -74.865899
   6.17265    -74.865901
   6.26703    -74.865915
   6.36141    -74.865944
   6.45578    -74.865994
   6.55016    -74.866058
   6.64453    -74.866141
   6.73891    -74.866233
   6.83329    -74.866325
   6.92766    -74.866412
   7.02204    -74.866488
   7.11642    -74.866551
   7.21079    -74.866597
   7.30517    -74.866616
   7.30517    -74.866616
   7.34809    -74.866611
   7.39101    -74.866602
   7.43393    -74.866588
   7.47685    -74.866569
   7.51976    -74.866545
   7.56268    -74.866521
   7.60560    -74.866497
   7.64852    -74.866471
   7.69144    -74.866445
   7.73436    -74.866420
   7.77728    -74.866394
   7.82020    -74.866367
   7.86312    -74.866342
   7.90604    -74.866321
   7.94896    -74.866301
   7.99187    -74.866288
   8.03479    -74.866278
   8.07771    -74.866272
   8.12063    -74.866270
 
# Band-Index:    2
   8.12063    -39.231830
   8.07771    -39.231550
   8.03479    -39.230734
   7.99187    -39.229402
   7.94896    -39.227593
   7.90604    -39.225376
   7.86312    -39.222823
   7.82020    -39.220035
   7.77728    -39.217104
   7.73436    -39.214124
   7.69144    -39.211192
   7.64852    -39.208406
   7.60560    -39.205843
   7.56268    -39.203564
   7.51976    -39.201609
   7.47685    -39.200006
   7.43393    -39.198759
   7.39101    -39.197868
   7.34809    -39.197345
   7.30517    -39.197180
   7.30517    -39.197180
   7.21079    -39.198076
   7.11642    -39.200748
   7.02204    -39.205012
   6.92766    -39.210561
   6.83329    -39.216884
   6.73891    -39.223341
   6.64453    -39.229253
   6.55016    -39.234065
   6.45578    -39.237444
   6.36141    -39.239420
   6.26703    -39.240398
   6.17265    -39.241079
   6.07828    -39.242122
   5.98390    -39.243758
   5.88952    -39.245784
   5.79515    -39.247815
   5.70077    -39.249505
   5.60639    -39.250608
   5.51202    -39.250992
   5.51202    -39.197180
   5.42854    -39.197891
   5.34505    -39.200014
   5.26157    -39.203571
   5.17809    -39.208409
   5.09460    -39.214118
   5.01112    -39.220041
   4.92764    -39.225375
   4.84416    -39.229399
   4.76067    -39.231552
   4.67719    -39.231556
   4.59371    -39.229391
   4.51023    -39.225366
   4.42674    -39.220038
   4.34326    -39.214123
   4.25978    -39.208408
   4.17629    -39.203560
   4.09281    -39.200003
   4.00933    -39.197869
   3.92585    -39.197180
   3.92585    -39.197180
   3.86266    -39.197563
   3.79947    -39.198713
   3.73628    -39.200599
   3.67309    -39.203181
   3.60990    -39.206400
   3.54671    -39.210173
   3.48352    -39.214415
   3.42033    -39.219015
   3.35714    -39.223854
   3.29395    -39.228811
   3.23076    -39.233737
   3.16757    -39.238504
   3.10438    -39.242960
   3.04119    -39.246984
   2.97800    -39.250454
   2.91481    -39.253265
   2.85162    -39.255335
   2.78843    -39.256606
   2.72524    -39.257038
   2.72524    -39.257038
   2.68560    -39.256958
   2.64597    -39.256740
   2.60633    -39.256399
   2.56669    -39.255959
   2.52705    -39.255438
   2.48742    -39.254884
   2.44778    -39.254322
   2.40814    -39.253778
   2.36850    -39.253266
   2.32886    -39.252812
   2.28923    -39.252410
   2.24959    -39.252067
   2.20995    -39.251781
   2.17031    -39.251549
   2.13068    -39.251366
   2.09104    -39.251226
   2.05140    -39.251112
   2.01176    -39.251042
   1.97212    -39.251002
   1.97212    -39.251002
   1.92828    -39.250988
   1.88443    -39.251012
   1.84059    -39.251061
   1.79674    -39.251150
   1.75290    -39.251290
   1.70905    -39.251475
   1.66521    -39.251706
   1.62136    -39.252004
   1.57752    -39.252380
   1.53367    -39.252828
   1.48983    -39.253339
   1.44598    -39.253906
   1.40214    -39.254518
   1.35829    -39.255143
   1.31445    -39.255730
   1.27060    -39.256253
   1.22676    -39.256665
   1.18291    -39.256926
   1.13907    -39.257015
   1.13907    -39.257015
   1.07912    -39.256589
   1.01917    -39.255319
   0.95922    -39.253247
   0.89927    -39.250438
   0.83931    -39.246970
   0.77936    -39.242953
   0.71941    -39.238490
   0.65946    -39.233733
   0.59951    -39.228807
   0.53956    -39.223856
   0.47961    -39.219015
   0.41966    -39.214418
   0.35971    -39.210180
   0.29976    -39.206406
   0.23980    -39.203189
   0.17985    -39.200607
   0.11990    -39.198715
   0.05995    -39.197562
   0.00000    -39.197180
 
# Band-Index:    3
   0.00000    -39.146301
   0.05995    -39.146706
   0.11990    -39.147945
   0.17985    -39.149963
   0.23980    -39.152661
   0.29976    -39.155992
   0.35971    -39.159821
   0.41966    -39.164048
   0.47961    -39.168531
   0.53956    -39.173119
   0.59951    -39.177738
   0.65946    -39.182223
   0.71941    -39.186451
   0.77936    -39.190353
   0.83931    -39.193797
   0.89927    -39.196738
   0.95922    -39.199093
   1.01917    -39.200803
   1.07912    -39.201849
   1.13907    -39.202202
   1.13907    -39.202202
   1.18291    -39.201957
   1.22676    -39.201225
   1.27060    -39.200012
   1.31445    -39.198330
   1.35829    -39.196204
   1.40214    -39.193664
   1.44598    -39.190770
   1.48983    -39.187589
   1.53367    -39.184236
   1.57752    -39.180797
   1.62136    -39.177379
   1.66521    -39.174125
   1.70905    -39.171145
   1.75290    -39.168531
   1.79674    -39.166366
   1.84059    -39.164749
   1.88443    -39.163739
   1.92828    -39.163360
   1.97212    -39.163629
   1.97212    -39.163629
   2.01176    -39.164415
   2.05140    -39.165702
   2.09104    -39.167459
   2.13068    -39.169626
   2.17031    -39.172126
   2.20995    -39.174907
   2.24959    -39.177888
   2.28923    -39.180985
   2.32886    -39.184091
   2.36850    -39.187133
   2.40814    -39.190044
   2.44778    -39.192741
   2.48742    -39.195167
   2.52705    -39.197269
   2.56669    -39.199023
   2.60633    -39.200404
   2.64597    -39.201399
   2.68560    -39.201994
   2.72524    -39.202190
   2.72524    -39.202190
   2.78843    -39.201841
   2.85162    -39.200800
   2.91481    -39.199080
   2.97800    -39.196733
   3.04119    -39.193794
   3.10438    -39.190348
   3.16757    -39.186460
   3.23076    -39.182213
   3.29395    -39.177738
   3.35714    -39.173132
   3.42033    -39.168526
   3.48352    -39.164042
   3.54671    -39.159823
   3.60990    -39.155989
   3.67309    -39.152662
   3.73628    -39.149956
   3.79947    -39.147945
   3.86266    -39.146705
   3.92585    -39.146301
   3.92585    -39.146301
   4.00933    -39.146833
   4.09281    -39.148291
   4.17629    -39.150268
   4.25978    -39.152302
   4.34326    -39.154057
   4.42674    -39.155391
   4.51023    -39.156292
   4.59371    -39.156839
   4.67719    -39.157091
   4.76067    -39.157093
   4.84416    -39.156840
   4.92764    -39.156291
   5.01112    -39.155391
   5.09460    -39.154066
   5.17809    -39.152318
   5.26157    -39.150289
   5.34505    -39.148307
   5.42854    -39.146849
   5.51202    -39.146306
   5.51202    -39.163356
   5.60639    -39.164490
   5.70077    -39.167723
   5.79515    -39.172569
   5.88952    -39.178224
   5.98390    -39.183706
   6.07828    -39.187943
   6.17265    -39.190075
   6.26703    -39.189808
   6.36141    -39.187444
   6.45578    -39.183615
   6.55016    -39.178867
   6.64453    -39.173618
   6.73891    -39.168180
   6.83329    -39.162786
   6.92766    -39.157675
   7.02204    -39.153129
   7.11642    -39.149500
   7.21079    -39.147113
   7.30517    -39.146301
   7.30517    -39.146301
   7.34809    -39.146433
   7.39101    -39.146831
   7.43393    -39.147466
   7.47685    -39.148292
   7.51976    -39.149249
   7.56268    -39.150271
   7.60560    -39.151307
   7.64852    -39.152304
   7.69144    -39.153231
   7.73436    -39.154062
   7.77728    -39.154784
   7.82020    -39.155393
   7.86312    -39.155889
   7.90604    -39.156294
   7.94896    -39.156602
   7.99187    -39.156837
   8.03479    -39.156996
   8.07771    -39.157092
   8.12063    -39.157123
 
# Band-Index:    4
   8.12063    -38.986003
   8.07771    -38.986019
   8.03479    -38.986066
   7.99187    -38.986148
   7.94896    -38.986242
   7.90604    -38.986368
   7.86312    -38.986513
   7.82020    -38.986679
   7.77728    -38.986858
   7.73436    -38.987040
   7.69144    -38.987225
   7.64852    -38.987405
   7.60560    -38.987580
   7.56268    -38.987743
   7.51976    -38.987887
   7.47685    -38.988015
   7.43393    -38.988118
   7.39101    -38.988190
   7.34809    -38.988235
   7.30517    -38.988257
   7.30517    -38.988257
   7.21079    -38.988171
   7.11642    -38.987927
   7.02204    -38.987530
   6.92766    -38.987032
   6.83329    -38.986469
   6.73891    -38.985880
   6.64453    -38.985295
   6.55016    -38.984783
   6.45578    -38.984373
   6.36141    -38.984078
   6.26703    -38.983912
   6.17265    -38.983863
   6.07828    -38.983909
   5.98390    -38.984034
   5.88952    -38.984211
   5.79515    -38.984390
   5.70077    -38.984542
   5.60639    -38.984644
   5.51202    -38.984679
   5.51202    -38.988266
   5.42854    -38.988214
   5.34505    -38.988032
   5.26157    -38.987751
   5.17809    -38.987410
   5.09460    -38.987038
   5.01112    -38.986673
   4.92764    -38.986360
   4.84416    -38.986135
   4.76067    -38.986008
   4.67719    -38.986011
   4.59371    -38.986140
   4.51023    -38.986375
   4.42674    -38.986683
   4.34326    -38.987041
   4.25978    -38.987402
   4.17629    -38.987736
   4.09281    -38.988016
   4.00933    -38.988193
   3.92585    -38.988257
   3.92585    -38.988257
   3.86266    -38.988212
   3.79947    -38.988097
   3.73628    -38.987903
   3.67309    -38.987640
   3.60990    -38.987322
   3.54671    -38.986941
   3.48352    -38.986510
   3.42033    -38.986052
   3.35714    -38.985578
   3.29395    -38.985098
   3.23076    -38.984618
   3.16757    -38.984167
   3.10438    -38.983746
   3.04119    -38.983366
   2.97800    -38.983047
   2.91481    -38.982779
   2.85162    -38.982586
   2.78843    -38.982469
   2.72524    -38.982428
   2.72524    -38.982428
   2.68560    -38.982441
   2.64597    -38.982483
   2.60633    -38.982554
   2.56669    -38.982650
   2.52705    -38.982762
   2.48742    -38.982894
   2.44778    -38.983044
   2.40814    -38.983206
   2.36850    -38.983372
   2.32886    -38.983551
   2.28923    -38.983724
   2.24959    -38.983893
   2.20995    -38.984054
   2.17031    -38.984207
   2.13068    -38.984343
   2.09104    -38.984458
   2.05140    -38.984547
   2.01176    -38.984615
   1.97212    -38.984656
   1.97212    -38.984656
   1.92828    -38.984669
   1.88443    -38.984653
   1.84059    -38.984597
   1.79674    -38.984514
   1.75290    -38.984404
   1.70905    -38.984264
   1.66521    -38.984099
   1.62136    -38.983923
   1.57752    -38.983739
   1.53367    -38.983547
   1.48983    -38.983354
   1.44598    -38.983169
   1.40214    -38.982994
   1.35829    -38.982831
   1.31445    -38.982690
   1.27060    -38.982575
   1.22676    -38.982491
   1.18291    -38.982438
   1.13907    -38.982418
   1.13907    -38.982418
   1.07912    -38.982456
   1.01917    -38.982575
   0.95922    -38.982775
   0.89927    -38.983038
   0.83931    -38.983365
   0.77936    -38.983752
   0.71941    -38.984170
   0.65946    -38.984630
   0.59951    -38.985098
   0.53956    -38.985576
   0.47961    -38.986057
   0.41966    -38.986516
   0.35971    -38.986937
   0.29976    -38.987321
   0.23980    -38.987650
   0.17985    -38.987917
   0.11990    -38.988106
   0.05995    -38.988216
   0.00000    -38.988257
 
# Band-Index:    5
   0.00000    -22.217863
   0.05995    -22.217557
   0.11990    -22.216705
   0.17985    -22.215394
   0.23980    -22.213855
   0.29976    -22.212329
   0.35971    -22.211066
   0.41966    -22.210373
   0.47961    -22.210380
   0.53956    -22.211195
   0.59951    -22.212793
   0.65946    -22.215030
   0.71941    -22.217717
   0.77936    -22.220673
   0.83931    -22.223625
   0.89927    -22.226358
   0.95922    -22.228723
   1.01917    -22.230524
   1.07912    -22.231656
   1.13907    -22.232033
   1.13907    -22.232033
   1.18291    -22.231651
   1.22676    -22.230481
   1.27060    -22.228527
   1.31445    -22.225849
   1.35829    -22.222537
   1.40214    -22.218627
   1.44598    -22.214237
   1.48983    -22.209478
   1.53367    -22.204446
   1.57752    -22.199272
   1.62136    -22.194089
   1.66521    -22.189028
   1.70905    -22.184197
   1.75290    -22.179705
   1.79674    -22.175651
   1.84059    -22.172173
   1.88443    -22.169333
   1.92828    -22.168518
   1.97212    -22.170442
   1.97212    -22.170442
   2.01176    -22.172796
   2.05140    -22.175690
   2.09104    -22.179091
   2.13068    -22.182875
   2.17031    -22.187010
   2.20995    -22.191371
   2.24959    -22.195912
   2.28923    -22.200544
   2.32886    -22.205156
   2.36850    -22.209641
   2.40814    -22.213981
   2.44778    -22.218019
   2.48742    -22.221671
   2.52705    -22.224911
   2.56669    -22.227654
   2.60633    -22.229814
   2.64597    -22.231416
   2.68560    -22.232387
   2.72524    -22.232717
   2.72524    -22.232717
   2.78843    -22.232316
   2.85162    -22.231158
   2.91481    -22.229307
   2.97800    -22.226883
   3.04119    -22.224035
   3.10438    -22.220986
   3.16757    -22.217959
   3.23076    -22.215172
   3.29395    -22.212887
   3.35714    -22.211258
   3.42033    -22.210422
   3.48352    -22.210404
   3.54671    -22.211092
   3.60990    -22.212347
   3.67309    -22.213870
   3.73628    -22.215397
   3.79947    -22.216702
   3.86266    -22.217554
   3.92585    -22.217863
   3.92585    -22.217863
   4.00933    -22.217164
   4.09281    -22.215149
   4.17629    -22.211919
   4.25978    -22.207616
   4.34326    -22.202126
   4.42674    -22.195206
   4.51023    -22.186429
   4.59371    -22.175289
   4.67719    -22.161434
   4.76067    -22.162734
   4.84416    -22.176465
   4.92764    -22.187461
   5.01112    -22.196057
   5.09460    -22.202814
   5.17809    -22.208159
   5.26157    -22.212393
   5.34505    -22.215529
   5.42854    -22.217536
   5.51202    -22.218193
   5.51202    -22.168650
   5.60639    -22.172631
   5.70077    -22.178490
   5.79515    -22.184722
   5.88952    -22.190376
   5.98390    -22.194501
   6.07828    -22.196134
   6.17265    -22.194447
   6.26703    -22.189242
   6.36141    -22.193530
   6.45578    -22.197131
   6.55016    -22.200022
   6.64453    -22.202405
   6.73891    -22.204662
   6.83329    -22.207073
   6.92766    -22.209802
   7.02204    -22.212677
   7.11642    -22.215327
   7.21079    -22.217174
   7.30517    -22.217863
   7.30517    -22.217863
   7.34809    -22.217675
   7.39101    -22.217163
   7.43393    -22.216327
   7.47685    -22.215164
   7.51976    -22.213702
   7.56268    -22.211956
   7.60560    -22.209940
   7.64852    -22.207681
   7.69144    -22.205144
   7.73436    -22.202267
   7.77728    -22.199030
   7.82020    -22.195405
   7.86312    -22.191318
   7.90604    -22.186724
   7.94896    -22.181561
   7.99187    -22.175766
   8.03479    -22.169267
   8.07771    -22.162065
   8.12063    -22.154763
 
# Band-Index:    6
   8.12063    -22.153422
   8.07771    -22.145372
   8.03479    -22.135985
   7.99187    -22.125927
   7.94896    -22.115235
   7.90604    -22.104053
   7.86312    -22.092482
   7.82020    -22.080671
   7.77728    -22.068797
   7.73436    -22.057064
   7.69144    -22.045685
   7.64852    -22.034938
   7.60560    -22.027473
   7.56268    -22.028896
   7.51976    -22.030148
   7.47685    -22.031211
   7.43393    -22.032052
   7.39101    -22.032654
   7.34809    -22.033023
   7.30517    -22.033164
   7.30517    -22.033164
   7.21079    -22.032465
   7.11642    -22.030365
   7.02204    -22.026677
   6.92766    -22.041566
   6.83329    -22.067864
   6.73891    -22.095156
   6.64453    -22.121229
   6.55016    -22.144468
   6.45578    -22.163786
   6.36141    -22.178581
   6.26703    -22.188650
   6.17265    -22.184063
   6.07828    -22.178662
   5.98390    -22.173407
   5.88952    -22.168868
   5.79515    -22.165652
   5.70077    -22.164245
   5.60639    -22.164921
   5.51202    -22.167095
   5.51202    -22.033839
   5.42854    -22.033361
   5.34505    -22.031899
   5.26157    -22.029586
   5.17809    -22.034007
   5.09460    -22.056049
   5.01112    -22.079674
   4.92764    -22.103128
   4.84416    -22.125090
   4.76067    -22.144656
   4.67719    -22.146037
   4.59371    -22.126464
   4.51023    -22.104472
   4.42674    -22.080974
   4.34326    -22.057253
   4.25978    -22.035029
   4.17629    -22.028831
   4.09281    -22.031200
   4.00933    -22.032654
   3.92585    -22.033164
   3.92585    -22.033164
   3.86266    -22.032855
   3.79947    -22.031934
   3.73628    -22.030338
   3.67309    -22.027986
   3.60990    -22.025169
   3.54671    -22.040156
   3.48352    -22.057166
   3.42033    -22.075308
   3.35714    -22.093864
   3.29395    -22.112230
   3.23076    -22.129884
   3.16757    -22.146422
   3.10438    -22.161399
   3.04119    -22.174538
   2.97800    -22.185641
   2.91481    -22.194420
   2.85162    -22.200819
   2.78843    -22.204682
   2.72524    -22.205963
   2.72524    -22.205963
   2.68560    -22.205688
   2.64597    -22.204808
   2.60633    -22.203362
   2.56669    -22.201404
   2.52705    -22.198965
   2.48742    -22.196108
   2.44778    -22.192952
   2.40814    -22.189552
   2.36850    -22.185991
   2.32886    -22.182419
   2.28923    -22.178918
   2.24959    -22.175612
   2.20995    -22.172636
   2.17031    -22.170062
   2.13068    -22.167983
   2.09104    -22.166479
   2.05140    -22.165599
   2.01176    -22.165420
   1.97212    -22.165914
   1.97212    -22.165914
   1.92828    -22.167225
   1.88443    -22.167389
   1.84059    -22.167046
   1.79674    -22.167521
   1.75290    -22.168804
   1.70905    -22.170827
   1.66521    -22.173478
   1.62136    -22.176658
   1.57752    -22.180272
   1.53367    -22.184116
   1.48983    -22.188032
   1.44598    -22.191920
   1.40214    -22.195587
   1.35829    -22.198927
   1.31445    -22.201804
   1.27060    -22.204142
   1.22676    -22.205879
   1.18291    -22.206950
   1.13907    -22.207317
   1.13907    -22.207317
   1.07912    -22.206012
   1.01917    -22.202136
   0.95922    -22.195756
   0.89927    -22.186934
   0.83931    -22.175807
   0.77936    -22.162598
   0.71941    -22.147502
   0.65946    -22.130906
   0.59951    -22.113111
   0.53956    -22.094578
   0.47961    -22.075879
   0.41966    -22.057609
   0.35971    -22.040452
   0.29976    -22.025173
   0.23980    -22.027924
   0.17985    -22.030309
   0.11990    -22.031925
   0.05995    -22.032852
   0.00000    -22.033164
 
# Band-Index:    7
   0.00000    -22.007495
   0.05995    -22.007516
   0.11990    -22.007568
   0.17985    -22.007588
   0.23980    -22.012607
   0.29976    -22.024704
   0.35971    -22.020675
   0.41966    -22.016232
   0.47961    -22.012426
   0.53956    -22.010088
   0.59951    -22.008779
   0.65946    -22.007983
   0.71941    -22.007532
   0.77936    -22.007389
   0.83931    -22.007460
   0.89927    -22.007717
   0.95922    -22.008055
   1.01917    -22.008373
   1.07912    -22.008603
   1.13907    -22.008694
   1.13907    -22.008694
   1.18291    -22.008597
   1.22676    -22.008329
   1.27060    -22.007882
   1.31445    -22.007304
   1.35829    -22.006627
   1.40214    -22.005893
   1.44598    -22.005168
   1.48983    -22.004474
   1.53367    -22.003880
   1.57752    -22.003405
   1.62136    -22.003097
   1.66521    -22.002948
   1.70905    -22.002941
   1.75290    -22.003033
   1.79674    -22.003138
   1.84059    -22.003230
   1.88443    -22.003173
   1.92828    -22.003670
   1.97212    -22.004073
   1.97212    -22.004073
   2.01176    -22.004220
   2.05140    -22.004246
   2.09104    -22.004219
   2.13068    -22.004200
   2.17031    -22.004233
   2.20995    -22.004368
   2.24959    -22.004628
   2.28923    -22.005027
   2.32886    -22.005569
   2.36850    -22.006212
   2.40814    -22.006950
   2.44778    -22.007727
   2.48742    -22.008504
   2.52705    -22.009258
   2.56669    -22.009936
   2.60633    -22.010488
   2.64597    -22.010913
   2.68560    -22.011162
   2.72524    -22.011251
   2.72524    -22.011251
   2.78843    -22.011125
   2.85162    -22.010773
   2.91481    -22.010255
   2.97800    -22.009683
   3.04119    -22.009157
   3.10438    -22.008814
   3.16757    -22.008724
   3.23076    -22.008928
   3.29395    -22.009524
   3.35714    -22.010652
   3.42033    -22.012810
   3.48352    -22.016465
   3.54671    -22.020835
   3.60990    -22.024619
   3.67309    -22.012495
   3.73628    -22.007599
   3.79947    -22.007571
   3.86266    -22.007514
   3.92585    -22.007495
   3.92585    -22.007495
   4.00933    -22.007192
   4.09281    -22.006380
   4.17629    -22.016472
   4.25978    -22.025788
   4.34326    -22.022225
   4.42674    -22.018360
   4.51023    -22.014397
   4.59371    -22.010524
   4.67719    -22.006846
   4.76067    -22.007528
   4.84416    -22.011286
   4.92764    -22.015191
   5.01112    -22.019154
   5.09460    -22.022995
   5.17809    -22.026551
   5.26157    -22.015592
   5.34505    -22.006581
   5.42854    -22.007430
   5.51202    -22.007728
   5.51202    -22.003536
   5.60639    -22.004393
   5.70077    -22.004327
   5.79515    -22.003288
   5.88952    -22.001681
   5.98390    -21.999846
   6.07828    -21.997905
   6.17265    -21.996965
   6.26703    -21.997962
   6.36141    -21.999129
   6.45578    -22.000459
   6.55016    -22.002139
   6.64453    -22.004523
   6.73891    -22.008600
   6.83329    -22.014875
   6.92766    -22.021391
   7.02204    -22.019075
   7.11642    -22.006885
   7.21079    -22.007341
   7.30517    -22.007495
   7.30517    -22.007495
   7.34809    -22.007415
   7.39101    -22.007191
   7.43393    -22.006845
   7.47685    -22.006382
   7.51976    -22.009311
   7.56268    -22.016434
   7.60560    -22.025061
   7.64852    -22.025858
   7.69144    -22.024156
   7.73436    -22.022351
   7.77728    -22.020465
   7.82020    -22.018535
   7.86312    -22.016590
   7.90604    -22.014650
   7.94896    -22.012719
   7.99187    -22.010830
   8.03479    -22.008961
   8.07771    -22.007166
   8.12063    -22.005563
 
# Band-Index:    8
   8.12063    -22.005288
   8.07771    -22.003768
   8.03479    -22.002216
   7.99187    -22.000776
   7.94896    -21.999440
   7.90604    -21.998251
   7.86312    -21.998925
   7.82020    -21.999987
   7.77728    -22.000995
   7.73436    -22.001941
   7.69144    -22.002838
   7.64852    -22.003670
   7.60560    -22.004454
   7.56268    -22.005173
   7.51976    -22.005817
   7.47685    -22.004167
   7.43393    -22.001583
   7.39101    -22.001020
   7.34809    -22.001065
   7.30517    -22.001132
   7.30517    -22.001132
   7.21079    -22.000478
   7.11642    -22.003640
   7.02204    -22.005984
   6.92766    -22.004521
   6.83329    -22.002203
   6.73891    -21.997934
   6.64453    -21.990399
   6.55016    -21.984962
   6.45578    -21.987429
   6.36141    -21.990356
   6.26703    -21.993133
   6.17265    -21.995541
   6.07828    -21.995915
   5.98390    -21.995555
   5.88952    -21.995900
   5.79515    -21.997125
   5.70077    -21.999087
   5.60639    -22.001319
   5.51202    -22.003056
   5.51202    -22.000903
   5.42854    -22.000749
   5.34505    -22.003540
   5.26157    -22.005337
   5.17809    -22.003797
   5.09460    -22.002053
   5.01112    -22.000106
   4.92764    -21.997908
   4.84416    -22.000431
   4.76067    -22.003444
   4.67719    -22.004069
   4.59371    -22.000977
   4.51023    -21.998407
   4.42674    -21.999966
   4.34326    -22.001923
   4.25978    -22.003666
   4.17629    -22.005157
   4.09281    -22.004189
   4.00933    -22.001025
   3.92585    -22.001132
   3.92585    -22.001132
   3.86266    -22.000738
   3.79947    -22.000077
   3.73628    -22.003522
   3.67309    -22.007517
   3.60990    -22.007225
   3.54671    -22.006485
   3.48352    -22.004823
   3.42033    -22.001161
   3.35714    -21.994818
   3.29395    -21.986572
   3.23076    -21.977298
   3.16757    -21.976422
   3.10438    -21.977977
   3.04119    -21.979671
   2.97800    -21.981351
   2.91481    -21.982817
   2.85162    -21.983972
   2.78843    -21.984700
   2.72524    -21.984944
   2.72524    -21.984944
   2.68560    -21.984939
   2.64597    -21.984918
   2.60633    -21.984906
   2.56669    -21.984947
   2.52705    -21.985067
   2.48742    -21.985328
   2.44778    -21.985789
   2.40814    -21.986458
   2.36850    -21.987376
   2.32886    -21.988554
   2.28923    -21.989961
   2.24959    -21.991594
   2.20995    -21.993392
   2.17031    -21.995273
   2.13068    -21.997107
   2.09104    -21.998807
   2.05140    -22.000257
   2.01176    -22.001438
   1.97212    -22.002293
   1.97212    -22.002293
   1.92828    -22.002874
   1.88443    -22.002964
   1.84059    -22.001885
   1.79674    -22.000428
   1.75290    -21.998657
   1.70905    -21.996671
   1.66521    -21.994609
   1.62136    -21.992642
   1.57752    -21.990892
   1.53367    -21.989425
   1.48983    -21.988276
   1.44598    -21.987467
   1.40214    -21.986953
   1.35829    -21.986699
   1.31445    -21.986622
   1.27060    -21.986664
   1.22676    -21.986760
   1.18291    -21.986828
   1.13907    -21.986851
   1.13907    -21.986851
   1.07912    -21.986578
   1.01917    -21.985732
   0.95922    -21.984397
   0.89927    -21.982727
   0.83931    -21.980856
   0.77936    -21.978934
   0.71941    -21.977157
   0.65946    -21.976949
   0.59951    -21.986260
   0.53956    -21.994535
   0.47961    -22.000893
   0.41966    -22.004609
   0.35971    -22.006349
   0.29976    -22.007135
   0.23980    -22.007480
   0.17985    -22.003590
   0.11990    -22.000091
   0.05995    -22.000738
   0.00000    -22.001132
 
# Band-Index:    9
   0.00000    -21.992805
   0.05995    -21.993043
   0.11990    -21.995406
   0.17985    -21.995546
   0.23980    -21.992669
   0.29976    -21.988815
   0.35971    -21.984415
   0.41966    -21.980022
   0.47961    -21.976533
   0.53956    -21.974908
   0.59951    -21.974868
   0.65946    -21.975744
   0.71941    -21.967188
   0.77936    -21.957603
   0.83931    -21.948763
   0.89927    -21.947373
   0.95922    -21.946600
   1.01917    -21.946030
   1.07912    -21.945687
   1.13907    -21.945568
   1.13907    -21.945568
   1.18291    -21.945681
   1.22676    -21.946054
   1.27060    -21.946838
   1.31445    -21.948265
   1.35829    -21.950472
   1.40214    -21.953464
   1.44598    -21.957144
   1.48983    -21.961325
   1.53367    -21.965731
   1.57752    -21.970146
   1.62136    -21.974311
   1.66521    -21.978074
   1.70905    -21.981318
   1.75290    -21.983924
   1.79674    -21.985927
   1.84059    -21.987326
   1.88443    -21.988064
   1.92828    -21.988127
   1.97212    -21.987794
   1.97212    -21.987794
   2.01176    -21.987223
   2.05140    -21.986122
   2.09104    -21.984536
   2.13068    -21.982439
   2.17031    -21.979849
   2.20995    -21.976792
   2.24959    -21.973320
   2.28923    -21.969534
   2.32886    -21.965556
   2.36850    -21.961548
   2.40814    -21.957731
   2.44778    -21.954245
   2.48742    -21.951263
   2.52705    -21.948896
   2.56669    -21.947205
   2.60633    -21.946141
   2.64597    -21.945576
   2.68560    -21.945318
   2.72524    -21.945241
   2.72524    -21.945241
   2.78843    -21.945338
   2.85162    -21.945646
   2.91481    -21.946209
   2.97800    -21.946993
   3.04119    -21.949038
   3.10438    -21.957889
   3.16757    -21.967507
   3.23076    -21.975103
   3.29395    -21.974422
   3.35714    -21.974582
   3.42033    -21.976316
   3.48352    -21.979878
   3.54671    -21.984345
   3.60990    -21.988768
   3.67309    -21.992637
   3.73628    -21.995512
   3.79947    -21.995384
   3.86266    -21.993036
   3.92585    -21.992805
   3.92585    -21.992805
   4.00933    -21.993818
   4.09281    -21.996342
   4.17629    -21.995708
   4.25978    -21.995030
   4.34326    -21.995275
   4.42674    -21.996455
   4.51023    -21.997782
   4.59371    -21.995324
   4.67719    -21.992567
   4.76067    -21.992678
   4.84416    -21.995445
   4.92764    -21.997866
   5.01112    -21.995922
   5.09460    -21.994755
   5.17809    -21.994566
   5.26157    -21.995288
   5.34505    -21.995786
   5.42854    -21.992988
   5.51202    -21.993609
   5.51202    -21.988086
   5.60639    -21.989219
   5.70077    -21.987966
   5.79515    -21.984348
   5.88952    -21.978772
   5.98390    -21.972202
   6.07828    -21.966960
   6.17265    -21.966206
   6.26703    -21.968080
   6.36141    -21.970530
   6.45578    -21.972899
   6.55016    -21.980836
   6.64453    -21.984125
   6.73891    -21.985391
   6.83329    -21.987727
   6.92766    -21.990698
   7.02204    -21.994049
   7.11642    -21.996885
   7.21079    -21.994230
   7.30517    -21.992805
   7.30517    -21.992805
   7.34809    -21.992607
   7.39101    -21.993810
   7.43393    -21.995441
   7.47685    -21.996327
   7.51976    -21.996176
   7.56268    -21.995692
   7.60560    -21.995243
   7.64852    -21.994976
   7.69144    -21.994954
   7.73436    -21.995184
   7.77728    -21.995638
   7.82020    -21.996316
   7.86312    -21.997189
   7.90604    -21.997806
   7.94896    -21.996633
   7.99187    -21.995385
   8.03479    -21.994048
   8.07771    -21.992636
   8.12063    -21.991193
 
# Band-Index:   10
   8.12063    -21.991086
   8.07771    -21.989560
   8.03479    -21.987895
   7.99187    -21.986156
   7.94896    -21.984337
   7.90604    -21.982472
   7.86312    -21.980578
   7.82020    -21.978684
   7.77728    -21.976807
   7.73436    -21.974979
   7.69144    -21.975743
   7.64852    -21.979271
   7.60560    -21.982445
   7.56268    -21.985223
   7.51976    -21.987580
   7.47685    -21.989490
   7.43393    -21.990951
   7.39101    -21.991983
   7.34809    -21.992595
   7.30517    -21.992196
   7.30517    -21.992196
   7.21079    -21.991619
   7.11642    -21.988217
   7.02204    -21.982795
   6.92766    -21.975770
   6.83329    -21.969849
   6.73891    -21.972427
   6.64453    -21.974430
   6.55016    -21.974559
   6.45578    -21.970896
   6.36141    -21.961458
   6.26703    -21.953065
   6.17265    -21.951001
   6.07828    -21.954553
   5.98390    -21.953728
   5.88952    -21.960708
   5.79515    -21.969741
   5.70077    -21.977844
   5.60639    -21.984099
   5.51202    -21.987853
   5.51202    -21.991346
   5.42854    -21.992790
   5.34505    -21.990254
   5.26157    -21.985968
   5.17809    -21.979929
   5.09460    -21.974928
   5.01112    -21.978643
   4.92764    -21.982419
   4.84416    -21.986085
   4.76067    -21.989481
   4.67719    -21.989593
   4.59371    -21.986167
   4.51023    -21.982491
   4.42674    -21.978695
   4.34326    -21.974987
   4.25978    -21.979198
   4.17629    -21.985177
   4.09281    -21.989479
   4.00933    -21.991978
   3.92585    -21.992196
   3.92585    -21.992196
   3.86266    -21.992346
   3.79947    -21.991007
   3.73628    -21.988832
   3.67309    -21.985934
   3.60990    -21.982421
   3.54671    -21.978402
   3.48352    -21.973988
   3.42033    -21.969343
   3.35714    -21.964601
   3.29395    -21.959891
   3.23076    -21.955343
   3.16757    -21.951089
   3.10438    -21.949120
   3.04119    -21.947948
   2.97800    -21.942518
   2.91481    -21.942177
   2.85162    -21.942779
   2.78843    -21.943105
   2.72524    -21.943204
   2.72524    -21.943204
   2.68560    -21.943291
   2.64597    -21.943522
   2.60633    -21.943841
   2.56669    -21.944087
   2.52705    -21.944144
   2.48742    -21.944013
   2.44778    -21.946762
   2.40814    -21.950611
   2.36850    -21.954832
   2.32886    -21.959268
   2.28923    -21.963708
   2.24959    -21.968061
   2.20995    -21.972192
   2.17031    -21.975987
   2.13068    -21.979362
   2.09104    -21.982238
   2.05140    -21.984567
   2.01176    -21.986333
   1.97212    -21.987507
   1.97212    -21.987507
   1.92828    -21.987766
   1.88443    -21.987071
   1.84059    -21.985625
   1.79674    -21.983479
   1.75290    -21.980648
   1.70905    -21.977168
   1.66521    -21.973111
   1.62136    -21.968629
   1.57752    -21.963839
   1.53367    -21.958897
   1.48983    -21.953988
   1.44598    -21.949356
   1.40214    -21.945212
   1.35829    -21.944848
   1.31445    -21.944770
   1.27060    -21.944486
   1.22676    -21.944108
   1.18291    -21.943828
   1.13907    -21.943721
   1.13907    -21.943721
   1.07912    -21.943604
   1.01917    -21.943222
   0.95922    -21.942562
   0.89927    -21.942091
   0.83931    -21.948325
   0.77936    -21.949433
   0.71941    -21.950778
   0.65946    -21.954776
   0.59951    -21.959394
   0.53956    -21.964183
   0.47961    -21.969003
   0.41966    -21.973726
   0.35971    -21.978190
   0.29976    -21.982291
   0.23980    -21.985865
   0.17985    -21.988806
   0.11990    -21.990987
   0.05995    -21.992342
   0.00000    -21.992196
 
# Band-Index:   11
   0.00000    -21.962154
   0.05995    -21.962766
   0.11990    -21.964372
   0.17985    -21.966218
   0.23980    -21.967618
   0.29976    -21.968320
   0.35971    -21.968360
   0.41966    -21.967663
   0.47961    -21.965677
   0.53956    -21.961852
   0.59951    -21.957014
   0.65946    -21.952910
   0.71941    -21.950413
   0.77936    -21.946402
   0.83931    -21.942640
   0.89927    -21.941638
   0.95922    -21.938803
   1.01917    -21.936924
   1.07912    -21.935860
   1.13907    -21.935512
   1.13907    -21.935512
   1.18291    -21.935688
   1.22676    -21.936268
   1.27060    -21.937373
   1.31445    -21.939145
   1.35829    -21.941758
   1.40214    -21.944663
   1.44598    -21.944220
   1.48983    -21.943526
   1.53367    -21.942614
   1.57752    -21.941542
   1.62136    -21.940394
   1.66521    -21.939280
   1.70905    -21.938277
   1.75290    -21.937417
   1.79674    -21.936730
   1.84059    -21.936222
   1.88443    -21.935832
   1.92828    -21.935531
   1.97212    -21.935298
   1.97212    -21.935298
   2.01176    -21.935173
   2.05140    -21.935584
   2.09104    -21.936126
   2.13068    -21.936803
   2.17031    -21.937605
   2.20995    -21.938520
   2.24959    -21.939529
   2.28923    -21.940561
   2.32886    -21.941537
   2.36850    -21.942411
   2.40814    -21.943139
   2.44778    -21.943679
   2.48742    -21.943450
   2.52705    -21.940822
   2.56669    -21.938903
   2.60633    -21.937588
   2.64597    -21.936770
   2.68560    -21.936321
   2.72524    -21.936181
   2.72524    -21.936181
   2.78843    -21.936529
   2.85162    -21.937584
   2.91481    -21.939402
   2.97800    -21.941289
   3.04119    -21.943416
   3.10438    -21.947100
   3.16757    -21.950493
   3.23076    -21.952734
   3.29395    -21.956951
   3.35714    -21.961818
   3.42033    -21.965608
   3.48352    -21.967557
   3.54671    -21.968260
   3.60990    -21.968244
   3.67309    -21.967563
   3.73628    -21.966189
   3.79947    -21.964358
   3.86266    -21.962767
   3.92585    -21.962154
   3.92585    -21.962154
   4.00933    -21.963264
   4.09281    -21.965878
   4.17629    -21.968683
   4.25978    -21.971613
   4.34326    -21.971791
   4.42674    -21.963561
   4.51023    -21.955379
   4.59371    -21.948142
   4.67719    -21.942691
   4.76067    -21.943233
   4.84416    -21.948749
   4.92764    -21.956026
   5.01112    -21.964256
   5.09460    -21.972477
   5.17809    -21.971564
   5.26157    -21.968643
   5.34505    -21.965834
   5.42854    -21.963256
   5.51202    -21.962166
   5.51202    -21.935374
   5.60639    -21.938493
   5.70077    -21.942458
   5.79515    -21.946623
   5.88952    -21.950571
   5.98390    -21.951961
   6.07828    -21.945683
   6.17265    -21.946583
   6.26703    -21.945738
   6.36141    -21.941498
   6.45578    -21.939271
   6.55016    -21.943283
   6.64453    -21.950598
   6.73891    -21.958976
   6.83329    -21.967620
   6.92766    -21.967576
   7.02204    -21.965908
   7.11642    -21.964316
   7.21079    -21.962734
   7.30517    -21.962154
   7.30517    -21.962154
   7.34809    -21.962436
   7.39101    -21.963261
   7.43393    -21.964478
   7.47685    -21.965877
   7.51976    -21.967293
   7.56268    -21.968684
   7.60560    -21.970100
   7.64852    -21.971607
   7.69144    -21.973241
   7.73436    -21.971908
   7.77728    -21.967863
   7.82020    -21.963720
   7.86312    -21.959591
   7.90604    -21.955590
   7.94896    -21.951813
   7.99187    -21.948406
   8.03479    -21.945425
   8.07771    -21.942965
   8.12063    -21.941144
 
# Band-Index:   12
   8.12063    -21.941024
   8.07771    -21.939829
   8.03479    -21.939221
   7.99187    -21.939243
   7.94896    -21.939846
   7.90604    -21.940997
   7.86312    -21.942606
   7.82020    -21.944582
   7.77728    -21.946749
   7.73436    -21.948961
   7.69144    -21.951024
   7.64852    -21.952761
   7.60560    -21.954062
   7.56268    -21.954823
   7.51976    -21.955093
   7.47685    -21.954995
   7.43393    -21.954654
   7.39101    -21.954247
   7.34809    -21.953927
   7.30517    -21.953810
   7.30517    -21.953810
   7.21079    -21.955047
   7.11642    -21.957189
   7.02204    -21.957853
   6.92766    -21.956043
   6.83329    -21.951995
   6.73891    -21.946993
   6.64453    -21.942483
   6.55016    -21.939649
   6.45578    -21.937759
   6.36141    -21.934494
   6.26703    -21.933726
   6.17265    -21.935200
   6.07828    -21.935493
   5.98390    -21.932477
   5.88952    -21.930098
   5.79515    -21.929511
   5.70077    -21.930464
   5.60639    -21.932351
   5.51202    -21.934758
   5.51202    -21.953133
   5.42854    -21.953625
   5.34505    -21.954455
   5.26157    -21.954350
   5.17809    -21.952349
   5.09460    -21.948579
   5.01112    -21.944252
   4.92764    -21.940695
   4.84416    -21.938948
   4.76067    -21.939552
   4.67719    -21.940035
   4.59371    -21.939387
   4.51023    -21.941122
   4.42674    -21.944691
   4.34326    -21.949044
   4.25978    -21.952821
   4.17629    -21.954846
   4.09281    -21.955015
   4.00933    -21.954255
   3.92585    -21.953810
   3.92585    -21.953810
   3.86266    -21.953828
   3.79947    -21.953903
   3.73628    -21.953958
   3.67309    -21.953958
   3.60990    -21.953906
   3.54671    -21.953739
   3.48352    -21.953402
   3.42033    -21.952849
   3.35714    -21.952019
   3.29395    -21.950731
   3.23076    -21.948152
   3.16757    -21.943636
   3.10438    -21.939644
   3.04119    -21.940137
   2.97800    -21.938937
   2.91481    -21.933018
   2.85162    -21.928251
   2.78843    -21.925374
   2.72524    -21.924468
   2.72524    -21.924468
   2.68560    -21.924666
   2.64597    -21.925278
   2.60633    -21.926277
   2.56669    -21.927558
   2.52705    -21.928911
   2.48742    -21.930148
   2.44778    -21.931186
   2.40814    -21.932020
   2.36850    -21.932670
   2.32886    -21.933202
   2.28923    -21.933628
   2.24959    -21.933968
   2.20995    -21.934246
   2.17031    -21.934477
   2.13068    -21.934671
   2.09104    -21.934831
   2.05140    -21.934974
   2.01176    -21.935124
   1.97212    -21.934844
   1.97212    -21.934844
   1.92828    -21.934551
   1.88443    -21.934304
   1.84059    -21.934088
   1.79674    -21.933887
   1.75290    -21.933691
   1.70905    -21.933479
   1.66521    -21.933222
   1.62136    -21.932916
   1.57752    -21.932557
   1.53367    -21.932110
   1.48983    -21.931547
   1.44598    -21.930853
   1.40214    -21.929958
   1.35829    -21.928832
   1.31445    -21.927493
   1.27060    -21.926113
   1.22676    -21.924979
   1.18291    -21.924255
   1.13907    -21.924016
   1.13907    -21.924016
   1.07912    -21.924928
   1.01917    -21.927827
   0.95922    -21.932584
   0.89927    -21.938286
   0.83931    -21.940469
   0.77936    -21.939870
   0.71941    -21.943706
   0.65946    -21.948293
   0.59951    -21.950900
   0.53956    -21.952166
   0.47961    -21.952966
   0.41966    -21.953485
   0.35971    -21.953798
   0.29976    -21.953955
   0.23980    -21.954008
   0.17985    -21.953991
   0.11990    -21.953921
   0.05995    -21.953837
   0.00000    -21.953810
 
# Band-Index:   13
   0.00000    -21.906813
   0.05995    -21.907266
   0.11990    -21.908595
   0.17985    -21.910594
   0.23980    -21.913050
   0.29976    -21.915836
   0.35971    -21.918826
   0.41966    -21.921932
   0.47961    -21.925079
   0.53956    -21.928145
   0.59951    -21.931113
   0.65946    -21.933800
   0.71941    -21.936049
   0.77936    -21.936756
   0.83931    -21.932931
   0.89927    -21.928777
   0.95922    -21.925321
   1.01917    -21.922753
   1.07912    -21.921179
   1.13907    -21.920649
   1.13907    -21.920649
   1.18291    -21.920910
   1.22676    -21.921625
   1.27060    -21.922703
   1.31445    -21.923945
   1.35829    -21.925146
   1.40214    -21.926170
   1.44598    -21.926922
   1.48983    -21.927417
   1.53367    -21.927663
   1.57752    -21.927688
   1.62136    -21.927495
   1.66521    -21.927113
   1.70905    -21.926545
   1.75290    -21.925807
   1.79674    -21.924959
   1.84059    -21.924104
   1.88443    -21.923266
   1.92828    -21.922511
   1.97212    -21.922840
   1.97212    -21.922840
   2.01176    -21.923563
   2.05140    -21.924332
   2.09104    -21.925121
   2.13068    -21.925855
   2.17031    -21.926476
   2.20995    -21.926958
   2.24959    -21.927289
   2.28923    -21.927460
   2.32886    -21.927455
   2.36850    -21.927271
   2.40814    -21.926900
   2.44778    -21.926309
   2.48742    -21.925493
   2.52705    -21.924491
   2.56669    -21.923393
   2.60633    -21.922303
   2.64597    -21.921403
   2.68560    -21.920811
   2.72524    -21.920607
   2.72524    -21.920607
   2.78843    -21.921129
   2.85162    -21.922715
   2.91481    -21.925292
   2.97800    -21.928754
   3.04119    -21.932884
   3.10438    -21.936652
   3.16757    -21.935868
   3.23076    -21.933631
   3.29395    -21.930995
   3.35714    -21.928081
   3.42033    -21.925018
   3.48352    -21.921887
   3.54671    -21.918800
   3.60990    -21.915819
   3.67309    -21.913039
   3.73628    -21.910582
   3.79947    -21.908589
   3.86266    -21.907262
   3.92585    -21.906813
   3.92585    -21.906813
   4.00933    -21.906795
   4.09281    -21.906758
   4.17629    -21.906689
   4.25978    -21.906670
   4.34326    -21.906719
   4.42674    -21.906859
   4.51023    -21.907075
   4.59371    -21.907405
   4.67719    -21.907573
   4.76067    -21.907630
   4.84416    -21.907466
   4.92764    -21.907059
   5.01112    -21.906831
   5.09460    -21.906674
   5.17809    -21.906633
   5.26157    -21.906689
   5.34505    -21.906742
   5.42854    -21.906795
   5.51202    -21.906808
   5.51202    -21.922410
   5.60639    -21.923285
   5.70077    -21.924646
   5.79515    -21.926248
   5.88952    -21.927912
   5.98390    -21.929382
   6.07828    -21.930346
   6.17265    -21.930598
   6.26703    -21.930063
   6.36141    -21.928930
   6.45578    -21.927317
   6.55016    -21.925035
   6.64453    -21.922191
   6.73891    -21.919131
   6.83329    -21.916128
   6.92766    -21.913354
   7.02204    -21.910881
   7.11642    -21.908831
   7.21079    -21.907344
   7.30517    -21.906813
   7.30517    -21.906813
   7.34809    -21.906803
   7.39101    -21.906790
   7.43393    -21.906774
   7.47685    -21.906757
   7.51976    -21.906727
   7.56268    -21.906690
   7.60560    -21.906670
   7.64852    -21.906664
   7.69144    -21.906678
   7.73436    -21.906708
   7.77728    -21.906768
   7.82020    -21.906852
   7.86312    -21.906950
   7.90604    -21.907083
   7.94896    -21.907242
   7.99187    -21.907437
   8.03479    -21.907558
   8.07771    -21.907611
   8.12063    -21.907627
 
# Band-Index:   14
   8.12063    -21.907580
   8.07771    -21.907540
   8.03479    -21.907455
   7.99187    -21.907346
   7.94896    -21.907208
   7.90604    -21.906955
   7.86312    -21.906576
   7.82020    -21.906122
   7.77728    -21.905611
   7.73436    -21.905045
   7.69144    -21.904441
   7.64852    -21.903807
   7.60560    -21.903181
   7.56268    -21.902571
   7.51976    -21.902019
   7.47685    -21.901526
   7.43393    -21.901128
   7.39101    -21.900828
   7.34809    -21.900648
   7.30517    -21.900599
   7.30517    -21.900599
   7.21079    -21.900932
   7.11642    -21.901958
   7.02204    -21.903557
   6.92766    -21.905595
   6.83329    -21.907851
   6.73891    -21.910084
   6.64453    -21.912025
   6.55016    -21.913526
   6.45578    -21.914663
   6.36141    -21.915742
   6.26703    -21.917054
   6.17265    -21.918505
   6.07828    -21.919902
   5.98390    -21.921153
   5.88952    -21.922002
   5.79515    -21.922111
   5.70077    -21.921848
   5.60639    -21.921831
   5.51202    -21.922257
   5.51202    -21.900627
   5.42854    -21.900873
   5.34505    -21.901565
   5.26157    -21.902625
   5.17809    -21.903834
   5.09460    -21.905049
   5.01112    -21.906156
   4.92764    -21.906980
   4.84416    -21.907320
   4.76067    -21.907518
   4.67719    -21.907559
   4.59371    -21.907343
   4.51023    -21.906928
   4.42674    -21.906121
   4.34326    -21.905047
   4.25978    -21.903813
   4.17629    -21.902557
   4.09281    -21.901524
   4.00933    -21.900831
   3.92585    -21.900599
   3.92585    -21.900599
   3.86266    -21.900791
   3.79947    -21.901382
   3.73628    -21.902349
   3.67309    -21.903671
   3.60990    -21.905310
   3.54671    -21.907221
   3.48352    -21.909312
   3.42033    -21.911504
   3.35714    -21.913694
   3.29395    -21.915724
   3.23076    -21.917480
   3.16757    -21.918889
   3.10438    -21.919864
   3.04119    -21.920422
   2.97800    -21.920626
   2.91481    -21.920553
   2.85162    -21.920293
   2.78843    -21.919923
   2.72524    -21.919727
   2.72524    -21.919727
   2.68560    -21.919803
   2.64597    -21.919988
   2.60633    -21.920200
   2.56669    -21.920389
   2.52705    -21.920507
   2.48742    -21.920589
   2.44778    -21.920646
   2.40814    -21.920672
   2.36850    -21.920674
   2.32886    -21.920679
   2.28923    -21.920674
   2.24959    -21.920674
   2.20995    -21.920686
   2.17031    -21.920723
   2.13068    -21.920803
   2.09104    -21.920940
   2.05140    -21.921154
   2.01176    -21.921472
   1.97212    -21.921905
   1.97212    -21.921905
   1.92828    -21.922123
   1.88443    -21.921535
   1.84059    -21.921068
   1.79674    -21.920738
   1.75290    -21.920536
   1.70905    -21.920415
   1.66521    -21.920361
   1.62136    -21.920345
   1.57752    -21.920356
   1.53367    -21.920375
   1.48983    -21.920377
   1.44598    -21.920380
   1.40214    -21.920355
   1.35829    -21.920306
   1.31445    -21.920214
   1.27060    -21.920067
   1.22676    -21.919874
   1.18291    -21.919687
   1.13907    -21.919612
   1.13907    -21.919612
   1.07912    -21.919759
   1.01917    -21.920028
   0.95922    -21.920202
   0.89927    -21.920189
   0.83931    -21.919935
   0.77936    -21.919370
   0.71941    -21.918395
   0.65946    -21.917071
   0.59951    -21.915379
   0.53956    -21.913436
   0.47961    -21.911342
   0.41966    -21.909211
   0.35971    -21.907164
   0.29976    -21.905293
   0.23980    -21.903658
   0.17985    -21.902353
   0.11990    -21.901384
   0.05995    -21.900788
   0.00000    -21.900599
 
# Band-Index:   15
   0.00000    -18.821451
   0.05995    -18.812556
   0.11990    -18.787391
   0.17985    -18.745174
   0.23980    -18.687128
   0.29976    -18.614213
   0.35971    -18.527421
   0.41966    -18.428288
   0.47961    -18.318990
   0.53956    -18.201523
   0.59951    -18.078970
   0.65946    -17.954082
   0.71941    -17.829140
   0.77936    -17.709291
   0.83931    -17.597470
   0.89927    -17.498338
   0.95922    -17.415786
   1.01917    -17.353082
   1.07912    -17.314233
   1.13907    -17.300755
   1.13907    -17.300755
   1.18291    -17.303827
   1.22676    -17.312985
   1.27060    -17.330019
   1.31445    -17.356746
   1.35829    -17.396158
   1.40214    -17.450038
   1.44598    -17.516862
   1.48983    -17.592583
   1.53367    -17.672849
   1.57752    -17.753429
   1.62136    -17.831159
   1.66521    -17.903520
   1.70905    -17.968327
   1.75290    -18.023542
   1.79674    -18.067962
   1.84059    -18.101060
   1.88443    -18.121497
   1.92828    -18.128833
   1.97212    -18.123353
   1.97212    -18.123353
   2.01176    -18.107160
   2.05140    -18.080455
   2.09104    -18.044278
   2.13068    -17.998630
   2.17031    -17.944501
   2.20995    -17.882863
   2.24959    -17.815081
   2.28923    -17.742746
   2.32886    -17.667285
   2.36850    -17.590618
   2.40814    -17.515269
   2.44778    -17.443429
   2.48742    -17.378078
   2.52705    -17.322103
   2.56669    -17.277706
   2.60633    -17.245740
   2.64597    -17.225577
   2.68560    -17.214612
   2.72524    -17.211221
   2.72524    -17.211221
   2.78843    -17.223721
   2.85162    -17.261750
   2.91481    -17.324307
   2.97800    -17.409341
   3.04119    -17.512896
   3.10438    -17.631335
   3.16757    -17.759717
   3.23076    -17.892998
   3.29395    -18.027774
   3.35714    -18.159692
   3.42033    -18.285511
   3.48352    -18.402360
   3.54671    -18.508332
   3.60990    -18.600847
   3.67309    -18.678588
   3.73628    -18.740335
   3.79947    -18.785143
   3.86266    -18.812047
   3.92585    -18.821451
   3.92585    -18.821451
   4.00933    -18.807429
   4.09281    -18.768167
   4.17629    -18.710023
   4.25978    -18.645676
   4.34326    -18.587310
   4.42674    -18.541701
   4.51023    -18.509600
   4.59371    -18.489595
   4.67719    -18.478925
   4.76067    -18.476402
   4.84416    -18.481656
   4.92764    -18.494110
   5.01112    -18.514684
   5.09460    -18.542903
   5.17809    -18.578720
   5.26157    -18.618155
   5.34505    -18.655224
   5.42854    -18.682323
   5.51202    -18.692231
   5.51202    -18.129206
   5.60639    -18.106861
   5.70077    -18.042683
   5.79515    -17.942846
   5.88952    -17.822002
   5.98390    -17.708089
   6.07828    -17.647331
   6.17265    -17.669497
   6.26703    -17.745846
   6.36141    -17.844232
   6.45578    -17.952922
   6.55016    -18.067637
   6.64453    -18.186477
   6.73891    -18.308730
   6.83329    -18.432656
   6.92766    -18.553379
   7.02204    -18.661650
   7.11642    -18.747701
   7.21079    -18.802372
   7.30517    -18.821451
   7.30517    -18.821451
   7.34809    -18.817559
   7.39101    -18.806902
   7.43393    -18.789519
   7.47685    -18.766079
   7.51976    -18.737710
   7.56268    -18.706145
   7.60560    -18.672843
   7.64852    -18.639833
   7.69144    -18.608650
   7.73436    -18.580634
   7.77728    -18.556042
   7.82020    -18.535492
   7.86312    -18.518666
   7.90604    -18.505202
   7.94896    -18.494704
   7.99187    -18.486897
   8.03479    -18.481194
   8.07771    -18.477821
   8.12063    -18.476713
 
# Band-Index:   16
   8.12063    -17.484513
   8.07771    -17.529260
   8.03479    -17.612519
   7.99187    -17.703904
   7.94896    -17.796188
   7.90604    -17.887361
   7.86312    -17.975167
   7.82020    -18.058350
   7.77728    -18.135603
   7.73436    -18.205795
   7.69144    -18.268076
   7.64852    -18.322543
   7.60560    -18.369440
   7.56268    -18.409379
   7.51976    -18.442671
   7.47685    -18.470496
   7.43393    -18.492384
   7.39101    -18.508467
   7.34809    -18.518617
   7.30517    -18.522061
   7.30517    -18.522061
   7.21079    -18.502726
   7.11642    -18.448130
   7.02204    -18.360752
   6.92766    -18.243422
   6.83329    -18.099086
   6.73891    -17.931195
   6.64453    -17.748460
   6.55016    -17.565258
   6.45578    -17.401996
   6.36141    -17.294056
   6.26703    -17.317674
   6.17265    -17.385462
   6.07828    -17.421067
   5.98390    -17.464870
   5.88952    -17.496278
   5.79515    -17.490687
   5.70077    -17.456449
   5.60639    -17.404703
   5.51202    -17.369780
   5.51202    -18.640125
   5.42854    -18.621899
   5.34505    -18.567784
   5.26157    -18.480000
   5.17809    -18.360672
   5.09460    -18.213119
   5.01112    -18.042365
   4.92764    -17.852956
   4.84416    -17.650600
   4.76067    -17.441809
   4.67719    -17.559856
   4.59371    -17.726542
   4.51023    -17.899159
   4.42674    -18.062609
   4.34326    -18.204820
   4.25978    -18.319331
   4.17629    -18.406148
   4.09281    -18.468858
   4.00933    -18.508025
   3.92585    -18.522061
   3.92585    -18.522061
   3.86266    -18.513344
   3.79947    -18.487727
   3.73628    -18.446201
   3.67309    -18.389037
   3.60990    -18.317710
   3.54671    -18.233123
   3.48352    -18.136899
   3.42033    -18.030891
   3.35714    -17.916834
   3.29395    -17.797806
   3.23076    -17.675777
   3.16757    -17.554034
   3.10438    -17.435276
   3.04119    -17.323459
   2.97800    -17.223888
   2.91481    -17.145402
   2.85162    -17.107034
   2.78843    -17.092742
   2.72524    -17.088811
   2.72524    -17.088811
   2.68560    -17.091264
   2.64597    -17.098740
   2.60633    -17.109646
   2.56669    -17.122666
   2.52705    -17.135403
   2.48742    -17.148397
   2.44778    -17.162409
   2.40814    -17.178103
   2.36850    -17.195555
   2.32886    -17.215062
   2.28923    -17.235695
   2.24959    -17.256763
   2.20995    -17.277320
   2.17031    -17.297212
   2.13068    -17.315374
   2.09104    -17.331678
   2.05140    -17.345623
   2.01176    -17.357204
   1.97212    -17.365721
   1.97212    -17.365721
   1.92828    -17.371737
   1.88443    -17.374440
   1.84059    -17.373312
   1.79674    -17.368443
   1.75290    -17.360666
   1.70905    -17.349813
   1.66521    -17.335883
   1.62136    -17.319596
   1.57752    -17.301307
   1.53367    -17.280949
   1.48983    -17.258081
   1.44598    -17.231998
   1.40214    -17.201573
   1.35829    -17.167176
   1.31445    -17.131907
   1.27060    -17.104442
   1.22676    -17.089710
   1.18291    -17.083254
   1.13907    -17.081427
   1.13907    -17.081427
   1.07912    -17.089558
   1.01917    -17.114885
   0.95922    -17.158350
   0.89927    -17.221801
   0.83931    -17.305682
   0.77936    -17.407091
   0.71941    -17.520766
   0.65946    -17.642115
   0.59951    -17.765834
   0.53956    -17.888459
   0.47961    -18.007222
   0.41966    -18.117775
   0.35971    -18.218809
   0.29976    -18.307357
   0.23980    -18.382425
   0.17985    -18.442661
   0.11990    -18.486199
   0.05995    -18.512957
   0.00000    -18.522061
 
# Band-Index:   17
   0.00000    -17.925274
   0.05995    -17.920177
   0.11990    -17.904709
   0.17985    -17.878952
   0.23980    -17.843406
   0.29976    -17.798767
   0.35971    -17.745689
   0.41966    -17.685794
   0.47961    -17.619559
   0.53956    -17.549013
   0.59951    -17.475755
   0.65946    -17.401153
   0.71941    -17.327224
   0.77936    -17.256082
   0.83931    -17.188494
   0.89927    -17.126737
   0.95922    -17.074244
   1.01917    -17.034778
   1.07912    -17.010828
   1.13907    -17.003002
   1.13907    -17.003002
   1.18291    -17.009521
   1.22676    -17.027142
   1.27060    -17.049026
   1.31445    -17.066155
   1.35829    -17.077634
   1.40214    -17.086140
   1.44598    -17.093691
   1.48983    -17.100580
   1.53367    -17.107115
   1.57752    -17.112921
   1.62136    -17.118179
   1.66521    -17.138369
   1.70905    -17.164931
   1.75290    -17.188345
   1.79674    -17.208108
   1.84059    -17.224320
   1.88443    -17.236284
   1.92828    -17.243944
   1.97212    -17.247381
   1.97212    -17.247381
   2.01176    -17.246557
   2.05140    -17.242368
   2.09104    -17.235092
   2.13068    -17.224989
   2.17031    -17.212005
   2.20995    -17.196598
   2.24959    -17.179247
   2.28923    -17.160459
   2.32886    -17.140650
   2.36850    -17.120234
   2.40814    -17.100033
   2.44778    -17.080320
   2.48742    -17.061484
   2.52705    -17.044783
   2.56669    -17.030438
   2.60633    -17.018631
   2.64597    -17.009862
   2.68560    -17.004542
   2.72524    -17.002671
   2.72524    -17.002671
   2.78843    -17.017149
   2.85162    -17.057463
   2.91481    -17.109729
   2.97800    -17.156257
   3.04119    -17.208626
   3.10438    -17.269548
   3.16757    -17.336795
   3.23076    -17.407691
   3.29395    -17.480431
   3.35714    -17.552500
   3.42033    -17.621909
   3.48352    -17.687260
   3.54671    -17.746900
   3.60990    -17.799470
   3.67309    -17.843843
   3.73628    -17.879073
   3.79947    -17.904851
   3.86266    -17.920148
   3.92585    -17.925274
   3.92585    -17.925274
   4.00933    -17.910502
   4.09281    -17.864891
   4.17629    -17.786361
   4.25978    -17.676885
   4.34326    -17.542383
   4.42674    -17.396632
   4.51023    -17.258048
   4.59371    -17.146176
   4.67719    -17.234550
   4.76067    -17.419552
   4.84416    -17.335291
   4.92764    -17.344875
   5.01112    -17.442060
   5.09460    -17.569926
   5.17809    -17.694482
   5.26157    -17.798242
   5.34505    -17.872967
   5.42854    -17.916933
   5.51202    -17.931147
   5.51202    -17.251620
   5.60639    -17.222759
   5.70077    -17.213510
   5.79515    -17.246227
   5.88952    -17.296335
   5.98390    -17.346335
   6.07828    -17.338701
   6.17265    -17.245990
   6.26703    -17.180982
   6.36141    -17.154937
   6.45578    -17.074208
   6.55016    -17.125234
   6.64453    -17.239185
   6.73891    -17.380280
   6.83329    -17.527610
   6.92766    -17.664075
   7.02204    -17.776922
   7.11642    -17.859649
   7.21079    -17.908868
   7.30517    -17.925274
   7.30517    -17.925274
   7.34809    -17.921464
   7.39101    -17.910440
   7.43393    -17.891792
   7.47685    -17.865068
   7.51976    -17.830145
   7.56268    -17.786973
   7.60560    -17.736221
   7.64852    -17.678335
   7.69144    -17.614594
   7.73436    -17.546114
   7.77728    -17.475253
   7.82020    -17.404424
   7.86312    -17.336514
   7.90604    -17.275319
   7.94896    -17.226807
   7.99187    -17.208779
   8.03479    -17.241381
   8.07771    -17.300428
   8.12063    -17.338480
 
# Band-Index:   18
   8.12063    -17.067599
   8.07771    -17.073358
   8.03479    -17.086867
   7.99187    -17.091240
   7.94896    -17.067975
   7.90604    -17.038386
   7.86312    -17.015592
   7.82020    -17.000131
   7.77728    -16.990140
   7.73436    -16.983579
   7.69144    -16.979148
   7.64852    -16.976061
   7.60560    -16.973936
   7.56268    -16.972599
   7.51976    -16.971721
   7.47685    -16.971122
   7.43393    -16.970633
   7.39101    -16.970266
   7.34809    -16.970139
   7.30517    -16.970297
   7.30517    -16.970297
   7.21079    -16.967974
   7.11642    -16.962205
   7.02204    -16.952589
   6.92766    -16.940669
   6.83329    -16.927928
   6.73891    -16.916673
   6.64453    -16.914098
   6.55016    -16.953495
   6.45578    -17.035154
   6.36141    -17.038697
   6.26703    -17.056278
   6.17265    -17.044402
   6.07828    -17.028079
   5.98390    -17.023385
   5.88952    -17.033341
   5.79515    -17.060003
   5.70077    -17.101359
   5.60639    -17.129039
   5.51202    -17.131646
   5.51202    -17.158767
   5.42854    -17.157435
   5.34505    -17.153387
   5.26157    -17.147944
   5.17809    -17.142265
   5.09460    -17.138221
   5.01112    -17.138060
   4.92764    -17.134768
   4.84416    -17.105012
   4.76067    -17.071290
   4.67719    -17.080358
   4.59371    -17.036580
   4.51023    -16.908810
   4.42674    -16.922519
   4.34326    -16.935002
   4.25978    -16.946301
   4.17629    -16.955791
   4.09281    -16.963763
   4.00933    -16.968430
   3.92585    -16.970297
   3.92585    -16.970297
   3.86266    -16.970712
   3.79947    -16.972342
   3.73628    -16.974378
   3.67309    -16.976731
   3.60990    -16.978958
   3.54671    -16.980607
   3.48352    -16.981382
   3.42033    -16.981789
   3.35714    -16.981986
   3.29395    -16.982451
   3.23076    -16.983149
   3.16757    -16.985241
   3.10438    -16.988104
   3.04119    -16.991384
   2.97800    -16.994210
   2.91481    -16.993389
   2.85162    -16.988631
   2.78843    -16.982342
   2.72524    -16.979922
   2.72524    -16.979922
   2.68560    -16.983183
   2.64597    -16.992165
   2.60633    -17.005511
   2.56669    -17.021481
   2.52705    -17.038196
   2.48742    -17.055149
   2.44778    -17.070961
   2.40814    -17.084763
   2.36850    -17.096329
   2.32886    -17.105863
   2.28923    -17.113409
   2.24959    -17.119529
   2.20995    -17.124592
   2.17031    -17.128763
   2.13068    -17.131942
   2.09104    -17.134328
   2.05140    -17.135864
   2.01176    -17.137180
   1.97212    -17.137758
   1.97212    -17.137758
   1.92828    -17.137657
   1.88443    -17.137186
   1.84059    -17.135771
   1.79674    -17.133480
   1.75290    -17.130779
   1.70905    -17.127333
   1.66521    -17.123066
   1.62136    -17.109269
   1.57752    -17.078305
   1.53367    -17.045912
   1.48983    -17.013285
   1.44598    -16.981064
   1.40214    -16.950307
   1.35829    -16.922217
   1.31445    -16.897261
   1.27060    -16.876558
   1.22676    -16.861261
   1.18291    -16.851707
   1.13907    -16.848584
   1.13907    -16.848584
   1.07912    -16.843354
   1.01917    -16.828813
   0.95922    -16.804805
   0.89927    -16.786611
   0.83931    -16.804915
   0.77936    -16.822258
   0.71941    -16.838397
   0.65946    -16.854759
   0.59951    -16.869895
   0.53956    -16.885020
   0.47961    -16.899912
   0.41966    -16.914369
   0.35971    -16.927942
   0.29976    -16.939844
   0.23980    -16.950221
   0.17985    -16.958723
   0.11990    -16.965141
   0.05995    -16.968802
   0.00000    -16.970297
 
# Band-Index:   19
   0.00000    -16.509298
   0.05995    -16.507327
   0.11990    -16.502405
   0.17985    -16.494309
   0.23980    -16.483282
   0.29976    -16.470790
   0.35971    -16.458746
   0.41966    -16.451049
   0.47961    -16.455359
   0.53956    -16.481138
   0.59951    -16.525756
   0.65946    -16.578481
   0.71941    -16.632793
   0.77936    -16.684970
   0.83931    -16.731820
   0.89927    -16.772122
   0.95922    -16.767750
   1.01917    -16.749812
   1.07912    -16.736688
   1.13907    -16.731653
   1.13907    -16.731653
   1.18291    -16.732177
   1.22676    -16.733635
   1.27060    -16.736481
   1.31445    -16.740744
   1.35829    -16.746104
   1.40214    -16.752483
   1.44598    -16.759618
   1.48983    -16.767043
   1.53367    -16.774810
   1.57752    -16.782063
   1.62136    -16.788788
   1.66521    -16.795541
   1.70905    -16.801797
   1.75290    -16.806782
   1.79674    -16.810877
   1.84059    -16.814348
   1.88443    -16.816695
   1.92828    -16.817944
   1.97212    -16.818457
   1.97212    -16.818457
   2.01176    -16.818095
   2.05140    -16.816796
   2.09104    -16.815094
   2.13068    -16.812666
   2.17031    -16.809251
   2.20995    -16.805286
   2.24959    -16.800648
   2.28923    -16.796060
   2.32886    -16.790827
   2.36850    -16.785157
   2.40814    -16.779649
   2.44778    -16.773739
   2.48742    -16.767925
   2.52705    -16.762373
   2.56669    -16.757418
   2.60633    -16.752691
   2.64597    -16.749370
   2.68560    -16.747218
   2.72524    -16.746522
   2.72524    -16.746522
   2.78843    -16.743245
   2.85162    -16.733560
   2.91481    -16.717702
   2.97800    -16.695261
   3.04119    -16.665424
   3.10438    -16.628172
   3.16757    -16.583848
   3.23076    -16.533556
   3.29395    -16.480297
   3.35714    -16.428247
   3.42033    -16.389115
   3.48352    -16.383370
   3.54671    -16.402518
   3.60990    -16.428410
   3.67309    -16.454114
   3.73628    -16.476866
   3.79947    -16.494327
   3.86266    -16.505257
   3.92585    -16.509298
   3.92585    -16.509298
   4.00933    -16.509236
   4.09281    -16.510947
   4.17629    -16.518885
   4.25978    -16.544534
   4.34326    -16.604124
   4.42674    -16.709654
   4.51023    -16.858000
   4.59371    -16.891268
   4.67719    -16.862343
   4.76067    -16.808243
   4.84416    -16.720225
   4.92764    -16.603341
   5.01112    -16.473939
   5.09460    -16.348801
   5.17809    -16.272562
   5.26157    -16.280441
   5.34505    -16.286573
   5.42854    -16.290825
   5.51202    -16.292454
   5.51202    -16.820055
   5.60639    -16.811031
   5.70077    -16.784021
   5.79515    -16.739791
   5.88952    -16.689598
   5.98390    -16.651507
   6.07828    -16.640484
   6.17265    -16.661995
   6.26703    -16.708450
   6.36141    -16.762167
   6.45578    -16.801262
   6.55016    -16.802524
   6.64453    -16.732144
   6.73891    -16.628208
   6.83329    -16.544353
   6.92766    -16.503306
   7.02204    -16.495648
   7.11642    -16.500826
   7.21079    -16.506562
   7.30517    -16.509298
   7.30517    -16.509298
   7.34809    -16.508589
   7.39101    -16.507124
   7.43393    -16.505088
   7.47685    -16.502735
   7.51976    -16.500835
   7.56268    -16.500522
   7.60560    -16.503302
   7.64852    -16.511203
   7.69144    -16.526561
   7.73436    -16.551304
   7.77728    -16.586123
   7.82020    -16.629576
   7.86312    -16.678062
   7.90604    -16.726488
   7.94896    -16.769048
   7.99187    -16.801807
   8.03479    -16.823734
   8.07771    -16.836325
   8.12063    -16.840408
 
# Band-Index:   20
   8.12063    -16.253851
   8.07771    -16.254278
   8.03479    -16.255385
   7.99187    -16.256935
   7.94896    -16.258253
   7.90604    -16.259043
   7.86312    -16.257877
   7.82020    -16.253669
   7.77728    -16.244460
   7.73436    -16.229234
   7.69144    -16.207758
   7.64852    -16.181137
   7.60560    -16.152450
   7.56268    -16.123930
   7.51976    -16.097962
   7.47685    -16.075418
   7.43393    -16.057186
   7.39101    -16.043616
   7.34809    -16.035265
   7.30517    -16.032671
   7.30517    -16.032671
   7.21079    -16.046392
   7.11642    -16.085748
   7.02204    -16.143814
   6.92766    -16.208104
   6.83329    -16.254164
   6.73891    -16.267273
   6.64453    -16.257994
   6.55016    -16.240722
   6.45578    -16.222496
   6.36141    -16.207085
   6.26703    -16.195845
   6.17265    -16.189080
   6.07828    -16.186203
   5.98390    -16.186501
   5.88952    -16.188297
   5.79515    -16.190322
   5.70077    -16.192065
   5.60639    -16.193232
   5.51202    -16.193897
   5.51202    -16.039427
   5.42854    -16.052179
   5.34505    -16.089971
   5.26157    -16.152636
   5.17809    -16.239594
   5.09460    -16.264570
   5.01112    -16.257852
   4.92764    -16.252977
   4.84416    -16.250994
   4.76067    -16.251709
   4.67719    -16.255547
   4.59371    -16.259792
   4.51023    -16.261033
   4.42674    -16.252725
   4.34326    -16.226442
   4.25978    -16.179254
   4.17629    -16.122985
   4.09281    -16.075219
   4.00933    -16.043691
   3.92585    -16.032671
   3.92585    -16.032671
   3.86266    -16.038469
   3.79947    -16.055467
   3.73628    -16.082420
   3.67309    -16.118563
   3.60990    -16.161603
   3.54671    -16.208474
   3.48352    -16.251938
   3.42033    -16.273569
   3.35714    -16.263684
   3.29395    -16.241742
   3.23076    -16.217994
   3.16757    -16.196267
   3.10438    -16.177498
   3.04119    -16.162528
   2.97800    -16.151378
   2.91481    -16.143684
   2.85162    -16.139127
   2.78843    -16.136790
   2.72524    -16.136052
   2.72524    -16.136052
   2.68560    -16.136436
   2.64597    -16.137186
   2.60633    -16.138660
   2.56669    -16.140817
   2.52705    -16.143270
   2.48742    -16.145986
   2.44778    -16.149168
   2.40814    -16.153032
   2.36850    -16.156794
   2.32886    -16.161034
   2.28923    -16.164864
   2.24959    -16.169080
   2.20995    -16.173153
   2.17031    -16.177159
   2.13068    -16.180617
   2.09104    -16.183983
   2.05140    -16.186755
   2.01176    -16.189440
   1.97212    -16.191786
   1.97212    -16.191786
   1.92828    -16.193597
   1.88443    -16.195286
   1.84059    -16.196221
   1.79674    -16.196893
   1.75290    -16.197230
   1.70905    -16.197341
   1.66521    -16.197208
   1.62136    -16.197025
   1.57752    -16.197006
   1.53367    -16.197251
   1.48983    -16.197729
   1.44598    -16.198309
   1.40214    -16.199417
   1.35829    -16.200617
   1.31445    -16.201824
   1.27060    -16.203064
   1.22676    -16.204129
   1.18291    -16.204873
   1.13907    -16.205159
   1.13907    -16.205159
   1.07912    -16.206718
   1.01917    -16.211435
   0.95922    -16.219372
   0.89927    -16.230189
   0.83931    -16.243595
   0.77936    -16.258731
   0.71941    -16.274682
   0.65946    -16.290667
   0.59951    -16.302939
   0.53956    -16.305574
   0.47961    -16.289796
   0.41966    -16.253972
   0.35971    -16.207625
   0.29976    -16.161063
   0.23980    -16.118158
   0.17985    -16.082299
   0.11990    -16.055357
   0.05995    -16.038510
   0.00000    -16.032671
 
# Band-Index:   21
   0.00000     -9.677533
   0.05995     -9.681518
   0.11990     -9.693392
   0.17985     -9.712267
   0.23980     -9.736861
   0.29976     -9.765679
   0.35971     -9.797025
   0.41966     -9.829147
   0.47961     -9.860506
   0.53956     -9.889832
   0.59951     -9.916159
   0.65946     -9.938818
   0.71941     -9.957555
   0.77936     -9.972507
   0.83931     -9.983901
   0.89927     -9.992187
   0.95922     -9.997941
   1.01917    -10.001639
   1.07912    -10.003685
   1.13907    -10.004350
   1.13907    -10.004350
   1.18291     -9.998550
   1.22676     -9.981383
   1.27060     -9.953422
   1.31445     -9.915767
   1.35829     -9.869790
   1.40214     -9.817182
   1.44598     -9.759912
   1.48983     -9.699965
   1.53367     -9.639390
   1.57752     -9.580165
   1.62136     -9.523976
   1.66521     -9.472320
   1.70905     -9.426421
   1.75290     -9.387041
   1.79674     -9.354842
   1.84059     -9.330089
   1.88443     -9.312944
   1.92828     -9.303394
   1.97212     -9.301513
   1.97212     -9.301513
   2.01176     -9.306262
   2.05140     -9.317192
   2.09104     -9.334195
   2.13068     -9.366026
   2.17031     -9.411204
   2.20995     -9.461562
   2.24959     -9.516231
   2.28923     -9.574173
   2.32886     -9.633974
   2.36850     -9.694286
   2.40814     -9.753683
   2.44778     -9.810559
   2.48742     -9.863443
   2.52705     -9.910940
   2.56669     -9.951754
   2.60633     -9.984714
   2.64597    -10.008958
   2.68560    -10.023774
   2.72524    -10.028776
   2.72524    -10.028776
   2.78843    -10.028027
   2.85162    -10.025752
   2.91481    -10.021826
   2.97800    -10.016019
   3.04119    -10.007930
   3.10438     -9.997121
   3.16757     -9.983058
   3.23076     -9.965191
   3.29395     -9.943210
   3.35714     -9.916994
   3.42033     -9.886814
   3.48352     -9.853435
   3.54671     -9.818178
   3.60990     -9.782717
   3.67309     -9.749192
   3.73628     -9.719931
   3.79947     -9.697045
   3.86266     -9.682492
   3.92585     -9.677533
   3.92585     -9.677533
   4.00933     -9.681841
   4.09281     -9.692568
   4.17629     -9.702697
   4.25978     -9.702656
   4.34326     -9.681929
   4.42674     -9.631133
   4.51023     -9.543642
   4.59371     -9.416210
   4.67719     -9.249042
   4.76067     -9.326018
   4.84416     -9.496195
   4.92764     -9.629053
   5.01112     -9.724030
   5.09460     -9.783702
   5.17809     -9.814124
   5.26157     -9.823472
   5.34505     -9.821183
   5.42854     -9.815772
   5.51202     -9.813219
   5.51202     -9.304377
   5.60639     -9.374645
   5.70077     -9.485668
   5.79515     -9.606942
   5.88952     -9.722921
   5.98390     -9.814084
   6.07828     -9.859823
   6.17265     -9.843658
   6.26703     -9.757199
   6.36141     -9.603571
   6.45578     -9.620828
   6.55016     -9.697616
   6.64453     -9.751033
   6.73891     -9.778596
   6.83329     -9.781714
   6.92766     -9.765421
   7.02204     -9.737678
   7.11642     -9.708099
   7.21079     -9.685729
   7.30517     -9.677533
   7.30517     -9.677533
   7.34809     -9.678874
   7.39101     -9.682817
   7.43393     -9.688853
   7.47685     -9.696191
   7.51976     -9.703765
   7.56268     -9.710322
   7.60560     -9.714497
   7.64852     -9.714911
   7.69144     -9.710204
   7.73436     -9.699043
   7.77728     -9.680326
   7.82020     -9.653132
   7.86312     -9.616705
   7.90604     -9.570640
   7.94896     -9.514659
   7.99187     -9.448886
   8.03479     -9.373809
   8.07771     -9.291569
   8.12063     -9.228257
 
# Band-Index:   22
   8.12063     -9.151219
   8.07771     -9.079862
   8.03479     -8.973583
   7.99187     -8.858962
   7.94896     -8.738826
   7.90604     -8.615151
   7.86312     -8.489537
   7.82020     -8.363664
   7.77728     -8.239480
   7.73436     -8.118748
   7.69144     -8.003287
   7.64852     -7.894919
   7.60560     -7.795291
   7.56268     -7.706000
   7.51976     -7.628319
   7.47685     -7.563383
   7.43393     -7.512041
   7.39101     -7.474956
   7.34809     -7.452582
   7.30517     -7.445167
   7.30517     -7.445167
   7.21079     -7.482339
   7.11642     -7.591552
   7.02204     -7.764454
   6.92766     -7.989757
   6.83329     -8.253853
   6.73891     -8.541962
   6.64453     -8.837998
   6.55016     -9.124791
   6.45578     -9.384235
   6.36141     -9.521539
   6.26703     -9.419017
   6.17265     -9.315853
   6.07828     -9.225237
   5.98390     -9.157680
   5.88952     -9.120014
   5.79515     -9.114473
   5.70077     -9.139071
   5.60639     -9.188855
   5.51202     -9.238362
   5.51202     -7.302365
   5.42854     -7.336195
   5.34505     -7.435328
   5.26157     -7.592996
   5.17809     -7.798355
   5.09460     -8.037667
   5.01112     -8.296135
   4.92764     -8.558836
   4.84416     -8.812534
   4.76067     -9.045620
   4.67719     -9.122150
   4.59371     -8.890793
   4.51023     -8.641029
   4.42674     -8.384595
   4.34326     -8.135052
   4.25978     -7.906711
   4.17629     -7.713494
   4.09281     -7.567107
   4.00933     -7.475917
   3.92585     -7.445167
   3.92585     -7.445167
   3.86266     -7.458820
   3.79947     -7.499880
   3.73628     -7.567620
   3.67309     -7.660880
   3.60990     -7.777888
   3.54671     -7.916477
   3.48352     -8.073892
   3.42033     -8.247306
   3.35714     -8.433273
   3.29395     -8.628062
   3.23076     -8.827248
   3.16757     -9.025554
   3.10438     -9.217056
   3.04119     -9.395267
   2.97800     -9.553509
   2.91481     -9.685006
   2.85162     -9.783908
   2.78843     -9.845315
   2.72524     -9.866145
   2.72524     -9.866145
   2.68560     -9.861934
   2.64597     -9.849313
   2.60633     -9.828762
   2.56669     -9.800894
   2.52705     -9.766711
   2.48742     -9.727336
   2.44778     -9.684088
   2.40814     -9.638242
   2.36850     -9.591322
   2.32886     -9.544751
   2.28923     -9.499767
   2.24959     -9.457653
   2.20995     -9.419338
   2.17031     -9.385627
   2.13068     -9.357116
   2.09104     -9.326906
   2.05140     -9.294332
   2.01176     -9.268825
   1.97212     -9.250536
   1.97212     -9.250536
   1.92828     -9.239074
   1.88443     -9.236977
   1.84059     -9.244051
   1.79674     -9.260304
   1.75290     -9.285352
   1.70905     -9.318636
   1.66521     -9.359392
   1.62136     -9.406586
   1.57752     -9.458914
   1.53367     -9.514696
   1.48983     -9.572046
   1.44598     -9.629048
   1.40214     -9.683585
   1.35829     -9.733669
   1.31445     -9.777504
   1.27060     -9.813427
   1.22676     -9.840116
   1.18291     -9.856527
   1.13907     -9.862070
   1.13907     -9.862070
   1.07912     -9.841570
   1.01917     -9.781083
   0.95922     -9.683663
   0.89927     -9.554045
   0.83931     -9.398105
   0.77936     -9.222453
   0.71941     -9.033530
   0.65946     -8.837841
   0.59951     -8.640900
   0.53956     -8.447926
   0.47961     -8.263161
   0.41966     -8.090272
   0.35971     -7.932185
   0.29976     -7.791785
   0.23980     -7.671836
   0.17985     -7.574904
   0.11990     -7.503588
   0.05995     -7.459792
   0.00000     -7.445167
 
# Band-Index:   23
   0.00000     -4.617942
   0.05995     -4.631619
   0.11990     -4.661626
   0.17985     -4.700597
   0.23980     -4.746894
   0.29976     -4.799437
   0.35971     -4.858492
   0.41966     -5.045381
   0.47961     -5.299249
   0.53956     -5.557464
   0.59951     -5.813379
   0.65946     -6.060900
   0.71941     -6.294392
   0.77936     -6.509628
   0.83931     -6.701049
   0.89927     -6.864644
   0.95922     -6.996660
   1.01917     -7.093587
   1.07912     -7.152748
   1.13907     -7.172773
   1.13907     -7.172773
   1.18291     -7.174245
   1.22676     -7.177908
   1.27060     -7.182359
   1.31445     -7.186897
   1.35829     -7.191038
   1.40214     -7.194694
   1.44598     -7.197808
   1.48983     -7.200671
   1.53367     -7.203137
   1.57752     -7.205103
   1.62136     -7.206844
   1.66521     -7.208302
   1.70905     -7.209391
   1.75290     -7.210204
   1.79674     -7.210645
   1.84059     -7.211143
   1.88443     -7.211346
   1.92828     -7.211229
   1.97212     -7.211057
   1.97212     -7.211057
   2.01176     -7.210775
   2.05140     -7.210299
   2.09104     -7.209845
   2.13068     -7.209232
   2.17031     -7.208328
   2.20995     -7.207082
   2.24959     -7.205736
   2.28923     -7.204136
   2.32886     -7.202203
   2.36850     -7.200046
   2.40814     -7.197720
   2.44778     -7.194923
   2.48742     -7.191741
   2.52705     -7.188279
   2.56669     -7.184619
   2.60633     -7.180542
   2.64597     -7.176576
   2.68560     -7.173560
   2.72524     -7.172324
   2.72524     -7.172324
   2.78843     -7.152518
   2.85162     -7.093752
   2.91481     -6.997376
   2.97800     -6.866336
   3.04119     -6.703675
   3.10438     -6.513488
   3.16757     -6.300056
   3.23076     -6.067765
   3.29395     -5.822749
   3.35714     -5.572020
   3.42033     -5.328598
   3.48352     -5.118773
   3.54671     -4.967847
   3.60990     -4.858217
   3.67309     -4.774392
   3.73628     -4.710937
   3.79947     -4.664409
   3.86266     -4.632051
   3.92585     -4.617942
   3.92585     -4.617942
   4.00933     -4.620821
   4.09281     -4.637689
   4.17629     -4.679993
   4.25978     -4.939580
   4.34326     -5.445344
   4.42674     -5.932833
   4.51023     -6.348283
   4.59371     -6.650900
   4.67719     -6.811775
   4.76067     -6.814960
   4.84416     -6.659863
   4.92764     -6.361687
   5.01112     -5.948812
   5.09460     -5.466172
   5.17809     -5.019449
   5.26157     -4.853597
   5.34505     -4.789015
   5.42854     -4.739291
   5.51202     -4.718386
   5.51202     -7.211510
   5.60639     -7.190642
   5.70077     -7.129787
   5.79515     -7.031883
   5.88952     -6.903177
   5.98390     -6.752792
   6.07828     -6.597703
   6.17265     -6.513179
   6.26703     -6.671581
   6.36141     -6.803450
   6.45578     -6.792431
   6.55016     -6.626609
   6.64453     -6.319150
   6.73891     -5.898607
   6.83329     -5.407772
   6.92766     -4.913634
   7.02204     -4.757178
   7.11642     -4.681652
   7.21079     -4.634972
   7.30517     -4.617942
   7.30517     -4.617942
   7.34809     -4.618479
   7.39101     -4.621230
   7.43393     -4.628312
   7.47685     -4.640765
   7.51976     -4.660371
   7.56268     -4.690336
   7.60560     -4.753316
   7.64852     -4.949196
   7.69144     -5.195703
   7.73436     -5.449137
   7.77728     -5.698629
   7.82020     -5.936480
   7.86312     -6.156224
   7.90604     -6.352325
   7.94896     -6.519728
   7.99187     -6.654531
   8.03479     -6.753068
   8.07771     -6.813215
   8.12063     -6.833456
 
# Band-Index:   24
   8.12063     -5.185277
   8.07771     -5.180442
   8.03479     -5.165971
   7.99187     -5.142397
   7.94896     -5.109784
   7.90604     -5.069174
   7.86312     -5.021713
   7.82020     -4.969112
   7.77728     -4.912949
   7.73436     -4.855824
   7.69144     -4.799933
   7.64852     -4.745279
   7.60560     -4.661164
   7.56268     -4.478283
   7.51976     -4.464738
   7.47685     -4.499105
   7.43393     -4.525609
   7.39101     -4.543589
   7.34809     -4.553322
   7.30517     -4.556632
   7.30517     -4.556632
   7.21079     -4.529230
   7.11642     -4.458269
   7.02204     -4.480077
   6.92766     -4.850575
   6.83329     -4.986044
   6.73891     -5.122221
   6.64453     -5.313335
   6.55016     -5.557288
   6.45578     -5.779984
   6.36141     -5.977239
   6.26703     -6.145600
   6.17265     -6.194795
   6.07828     -5.898180
   5.98390     -5.542342
   5.88952     -5.530502
   5.79515     -5.497967
   5.70077     -5.442381
   5.60639     -5.389823
   5.51202     -5.368363
   5.51202     -4.518212
   5.42854     -4.503383
   5.34505     -4.462523
   5.26157     -4.431467
   5.17809     -4.719090
   5.09460     -4.801967
   5.01112     -4.795101
   4.92764     -4.956215
   4.84416     -5.081794
   4.76067     -5.158592
   4.67719     -5.185839
   4.59371     -5.164552
   4.51023     -5.098850
   4.42674     -4.997357
   4.34326     -4.876080
   4.25978     -4.761228
   4.17629     -4.488116
   4.09281     -4.500156
   4.00933     -4.543914
   3.92585     -4.556632
   3.92585     -4.556632
   3.86266     -4.539469
   3.79947     -4.499459
   3.73628     -4.446196
   3.67309     -4.398156
   3.60990     -4.532915
   3.54671     -4.729373
   3.48352     -4.921460
   3.42033     -5.073026
   3.35714     -5.200226
   3.29395     -5.374613
   3.23076     -5.604898
   3.16757     -5.836796
   3.10438     -6.055318
   3.04119     -6.253864
   2.97800     -6.426406
   2.91481     -6.566830
   2.85162     -6.671041
   2.78843     -6.734940
   2.72524     -6.756660
   2.72524     -6.756660
   2.68560     -6.737194
   2.64597     -6.679973
   2.60633     -6.587353
   2.56669     -6.462789
   2.52705     -6.309554
   2.48742     -6.133929
   2.44778     -5.944554
   2.40814     -5.754679
   2.36850     -5.647785
   2.32886     -5.623608
   2.28923     -5.593596
   2.24959     -5.558413
   2.20995     -5.519526
   2.17031     -5.479097
   2.13068     -5.439536
   2.09104     -5.404146
   2.05140     -5.375911
   2.01176     -5.357418
   1.97212     -5.350111
   1.97212     -5.350111
   1.92828     -5.355531
   1.88443     -5.374495
   1.84059     -5.404656
   1.79674     -5.442585
   1.75290     -5.484914
   1.70905     -5.528035
   1.66521     -5.568605
   1.62136     -5.603952
   1.57752     -5.632495
   1.53367     -5.652998
   1.48983     -5.665158
   1.44598     -5.779825
   1.40214     -6.002396
   1.35829     -6.212889
   1.31445     -6.397726
   1.27060     -6.549391
   1.22676     -6.662521
   1.18291     -6.732650
   1.13907     -6.756524
   1.13907     -6.756524
   1.07912     -6.735216
   1.01917     -6.672142
   0.95922     -6.569518
   0.89927     -6.430796
   0.83931     -6.260857
   0.77936     -6.064762
   0.71941     -5.847506
   0.65946     -5.615191
   0.59951     -5.372024
   0.53956     -5.123466
   0.47961     -5.000488
   0.41966     -4.925304
   0.35971     -4.803021
   0.29976     -4.580447
   0.23980     -4.401157
   0.17985     -4.449862
   0.11990     -4.500677
   0.05995     -4.539778
   0.00000     -4.556632
 
# Band-Index:   25
   0.00000     -3.986076
   0.05995     -4.015864
   0.11990     -4.098787
   0.17985     -4.223568
   0.23980     -4.385515
   0.29976     -4.379440
   0.35971     -4.412685
   0.41966     -4.637033
   0.47961     -4.876378
   0.53956     -5.082752
   0.59951     -5.169145
   0.65946     -5.254809
   0.71941     -5.335432
   0.77936     -5.408693
   0.83931     -5.472495
   0.89927     -5.592389
   0.95922     -5.709331
   1.01917     -5.793152
   1.07912     -5.843488
   1.13907     -5.860324
   1.13907     -5.860324
   1.18291     -5.852518
   1.22676     -5.829179
   1.27060     -5.790194
   1.31445     -5.735660
   1.35829     -5.665015
   1.40214     -5.667527
   1.44598     -5.669576
   1.48983     -5.568719
   1.53367     -5.393636
   1.57752     -5.260501
   1.62136     -5.188282
   1.66521     -5.150485
   1.70905     -5.118812
   1.75290     -5.087951
   1.79674     -5.058464
   1.84059     -5.032024
   1.88443     -5.010558
   1.92828     -4.995567
   1.97212     -4.988592
   1.97212     -4.988592
   2.01176     -4.989179
   2.05140     -4.996531
   2.09104     -5.010832
   2.13068     -5.032115
   2.17031     -5.063014
   2.20995     -5.111848
   2.24959     -5.192551
   2.28923     -5.303008
   2.32886     -5.432603
   2.36850     -5.581424
   2.40814     -5.666303
   2.44778     -5.679114
   2.48742     -5.687509
   2.52705     -5.692282
   2.56669     -5.752578
   2.60633     -5.799377
   2.64597     -5.832510
   2.68560     -5.852208
   2.72524     -5.858771
   2.72524     -5.858771
   2.78843     -5.842492
   2.85162     -5.793930
   2.91481     -5.713831
   2.97800     -5.607544
   3.04119     -5.503805
   3.10438     -5.430570
   3.16757     -5.372357
   3.23076     -5.311957
   3.29395     -5.227897
   3.35714     -5.064797
   3.42033     -4.834615
   3.48352     -4.607276
   3.54671     -4.419987
   3.60990     -4.363242
   3.67309     -4.350653
   3.73628     -4.211184
   3.79947     -4.095664
   3.86266     -4.015685
   3.92585     -3.986076
   3.92585     -3.986076
   4.00933     -4.028258
   4.09281     -4.178727
   4.17629     -4.424254
   4.25978     -4.321456
   4.34326     -4.198948
   4.42674     -4.278984
   4.51023     -4.376675
   4.59371     -4.452053
   4.67719     -4.528957
   4.76067     -4.614585
   4.84416     -4.692641
   4.92764     -4.755002
   5.01112     -4.785864
   5.09460     -4.575723
   5.17809     -4.333995
   5.26157     -4.314623
   5.34505     -3.997202
   5.42854     -3.914619
   5.51202     -3.925296
   5.51202     -4.948626
   5.60639     -4.960696
   5.70077     -5.000315
   5.79515     -5.065517
   5.88952     -5.162293
   5.98390     -5.467511
   6.07828     -5.472328
   6.17265     -5.408385
   6.26703     -5.360669
   6.36141     -5.351834
   6.45578     -5.341971
   6.55016     -5.299084
   6.64453     -5.212467
   6.73891     -5.018658
   6.83329     -4.737689
   6.92766     -4.448411
   7.02204     -4.371904
   7.11642     -4.203166
   7.21079     -4.042706
   7.30517     -3.986076
   7.30517     -3.986076
   7.34809     -3.996232
   7.39101     -4.028034
   7.43393     -4.085517
   7.47685     -4.175776
   7.51976     -4.306362
   7.56268     -4.422183
   7.60560     -4.375956
   7.64852     -4.328377
   7.69144     -4.301814
   7.73436     -4.332937
   7.77728     -4.378422
   7.82020     -4.419111
   7.86312     -4.452740
   7.90604     -4.480136
   7.94896     -4.501639
   7.99187     -4.518303
   8.03479     -4.530122
   8.07771     -4.537169
   8.12063     -4.539372
 
# Band-Index:   26
   8.12063     -4.487753
   8.07771     -4.483526
   8.03479     -4.470893
   7.99187     -4.450162
   7.94896     -4.420997
   7.90604     -4.384815
   7.86312     -4.342313
   7.82020     -4.295560
   7.77728     -4.249520
   7.73436     -4.220437
   7.69144     -4.216223
   7.64852     -4.167262
   7.60560     -4.088012
   7.56268     -3.996920
   7.51976     -3.907293
   7.47685     -3.840478
   7.43393     -3.795971
   7.39101     -3.765302
   7.34809     -3.746929
   7.30517     -3.740960
   7.30517     -3.740960
   7.21079     -3.768443
   7.11642     -3.885220
   7.02204     -4.143562
   6.92766     -4.319910
   6.83329     -4.362606
   6.73891     -4.467203
   6.64453     -4.599703
   6.55016     -4.744254
   6.45578     -4.888595
   6.36141     -5.014783
   6.26703     -5.106161
   6.17265     -5.174314
   6.07828     -5.198838
   5.98390     -5.176072
   5.88952     -5.088025
   5.79515     -4.825245
   5.70077     -4.560989
   5.60639     -4.343931
   5.51202     -4.268417
   5.51202     -3.556250
   5.42854     -3.582572
   5.34505     -3.793704
   5.26157     -4.069251
   5.17809     -4.322411
   5.09460     -4.301321
   5.01112     -4.341309
   4.92764     -4.405437
   4.84416     -4.458761
   4.76067     -4.485346
   4.67719     -4.477924
   4.59371     -4.421937
   4.51023     -4.330509
   4.42674     -4.231818
   4.34326     -4.166193
   4.25978     -4.052338
   4.17629     -3.940544
   4.09281     -3.837377
   4.00933     -3.765782
   3.92585     -3.740960
   3.92585     -3.740960
   3.86266     -3.754136
   3.79947     -3.804881
   3.73628     -3.905281
   3.67309     -4.049476
   3.60990     -4.212292
   3.54671     -4.370129
   3.48352     -4.487802
   3.42033     -4.617279
   3.35714     -4.755081
   3.29395     -4.893691
   3.23076     -5.026346
   3.16757     -5.151348
   3.10438     -5.286853
   3.04119     -5.434372
   2.97800     -5.540498
   2.91481     -5.607973
   2.85162     -5.655945
   2.78843     -5.685342
   2.72524     -5.695087
   2.72524     -5.695087
   2.68560     -5.695283
   2.64597     -5.695347
   2.60633     -5.695308
   2.56669     -5.694630
   2.52705     -5.691159
   2.48742     -5.613852
   2.44778     -5.516517
   2.40814     -5.392700
   2.36850     -5.240357
   2.32886     -5.102464
   2.28923     -5.033542
   2.24959     -4.982245
   2.20995     -4.907771
   2.17031     -4.802510
   2.13068     -4.681182
   2.09104     -4.557020
   2.05140     -4.439858
   2.01176     -4.340358
   1.97212     -4.270688
   1.97212     -4.270688
   1.92828     -4.243031
   1.88443     -4.274920
   1.84059     -4.357761
   1.79674     -4.475170
   1.75290     -4.612492
   1.70905     -4.758396
   1.66521     -4.904601
   1.62136     -5.043622
   1.57752     -5.152838
   1.53367     -5.232000
   1.48983     -5.344771
   1.44598     -5.470247
   1.40214     -5.577146
   1.35829     -5.660644
   1.31445     -5.650875
   1.27060     -5.640278
   1.22676     -5.631075
   1.18291     -5.624763
   1.13907     -5.622568
   1.13907     -5.622568
   1.07912     -5.616387
   1.01917     -5.597988
   0.95922     -5.567600
   0.89927     -5.525681
   0.83931     -5.443631
   0.77936     -5.266546
   0.71941     -5.066570
   0.65946     -4.880231
   0.59951     -4.791830
   0.53956     -4.693522
   0.47961     -4.589393
   0.41966     -4.488828
   0.35971     -4.409877
   0.29976     -4.211113
   0.23980     -4.037752
   0.17985     -3.899301
   0.11990     -3.804084
   0.05995     -3.754420
   0.00000     -3.740960
 
# Band-Index:   27
   0.00000     -3.525030
   0.05995     -3.544394
   0.11990     -3.598799
   0.17985     -3.717264
   0.23980     -3.842020
   0.29976     -3.955602
   0.35971     -4.048382
   0.41966     -4.181238
   0.47961     -4.325492
   0.53956     -4.480375
   0.59951     -4.656293
   0.65946     -4.857076
   0.71941     -4.956160
   0.77936     -5.018696
   0.83931     -5.066968
   0.89927     -5.101977
   0.95922     -5.125486
   1.01917     -5.139758
   1.07912     -5.147096
   1.13907     -5.149248
   1.13907     -5.149248
   1.18291     -5.141919
   1.22676     -5.119945
   1.27060     -5.083273
   1.31445     -5.032378
   1.35829     -5.010335
   1.40214     -5.034218
   1.44598     -5.041590
   1.48983     -5.013303
   1.53367     -4.900371
   1.57752     -4.684160
   1.62136     -4.421947
   1.66521     -4.245348
   1.70905     -4.157050
   1.75290     -4.092498
   1.79674     -4.048855
   1.84059     -4.023737
   1.88443     -4.017708
   1.92828     -4.031484
   1.97212     -4.062017
   1.97212     -4.062017
   2.01176     -4.098055
   2.05140     -4.136562
   2.09104     -4.175052
   2.13068     -4.213547
   2.17031     -4.256053
   2.20995     -4.310277
   2.24959     -4.442124
   2.28923     -4.684552
   2.32886     -4.879096
   2.36850     -4.964836
   2.40814     -4.986298
   2.44778     -4.987648
   2.48742     -4.980583
   2.52705     -4.969274
   2.56669     -4.999654
   2.60633     -5.036054
   2.64597     -5.061844
   2.68560     -5.077137
   2.72524     -5.082061
   2.72524     -5.082061
   2.78843     -5.083723
   2.85162     -5.094819
   2.91481     -5.126145
   2.97800     -5.162528
   3.04119     -5.174085
   3.10438     -5.129319
   3.16757     -4.989791
   3.23076     -4.782915
   3.29395     -4.580524
   3.35714     -4.444834
   3.42033     -4.333508
   3.48352     -4.233824
   3.54671     -4.134077
   3.60990     -4.009540
   3.67309     -3.870433
   3.73628     -3.739919
   3.79947     -3.622598
   3.86266     -3.546784
   3.92585     -3.525030
   3.92585     -3.525030
   4.00933     -3.575718
   4.09281     -3.738060
   4.17629     -3.908158
   4.25978     -4.010011
   4.34326     -4.124505
   4.42674     -4.070803
   4.51023     -3.942943
   4.59371     -3.801935
   4.67719     -3.649496
   4.76067     -3.506148
   4.84416     -3.454747
   4.92764     -3.627032
   5.01112     -3.776976
   5.09460     -3.861461
   5.17809     -3.848645
   5.26157     -3.778528
   5.34505     -3.712369
   5.42854     -3.574024
   5.51202     -3.506095
   5.51202     -4.137774
   5.60639     -4.201352
   5.70077     -4.277314
   5.79515     -4.324010
   5.88952     -4.452868
   5.98390     -4.744425
   6.07828     -4.909235
   6.17265     -5.001583
   6.26703     -5.031319
   6.36141     -4.945971
   6.45578     -4.810670
   6.55016     -4.658502
   6.64453     -4.498903
   6.73891     -4.349415
   6.83329     -4.232098
   6.92766     -4.115776
   7.02204     -3.958814
   7.11642     -3.766616
   7.21079     -3.586734
   7.30517     -3.525030
   7.30517     -3.525030
   7.34809     -3.537809
   7.39101     -3.580228
   7.43393     -3.657983
   7.47685     -3.752840
   7.51976     -3.837176
   7.56268     -3.901112
   7.60560     -3.960133
   7.64852     -4.018011
   7.69144     -4.068809
   7.73436     -4.087844
   7.77728     -4.049514
   7.82020     -3.982397
   7.86312     -3.906529
   7.90604     -3.830255
   7.94896     -3.765058
   7.99187     -3.725415
   8.03479     -3.706209
   8.07771     -3.697595
   8.12063     -3.695148
 
# Band-Index:   28
   8.12063     -3.487190
   8.07771     -3.506919
   8.03479     -3.557382
   7.99187     -3.621342
   7.94896     -3.679422
   7.90604     -3.720701
   7.86312     -3.754325
   7.82020     -3.784969
   7.77728     -3.811705
   7.73436     -3.832335
   7.69144     -3.844138
   7.64852     -3.844247
   7.60560     -3.830408
   7.56268     -3.799590
   7.51976     -3.750501
   7.47685     -3.686876
   7.43393     -3.616853
   7.39101     -3.543174
   7.34809     -3.472546
   7.30517     -3.441597
   7.30517     -3.441597
   7.21079     -3.554548
   7.11642     -3.727844
   7.02204     -3.874049
   6.92766     -3.999094
   6.83329     -4.114254
   6.73891     -4.198289
   6.64453     -4.233725
   6.55016     -4.279134
   6.45578     -4.455662
   6.36141     -4.649575
   6.26703     -4.792083
   6.17265     -4.851919
   6.07828     -4.782773
   5.98390     -4.598530
   5.88952     -4.356552
   5.79515     -3.998439
   5.70077     -3.699994
   5.60639     -3.428294
   5.51202     -3.350284
   5.51202     -3.373249
   5.42854     -3.527968
   5.34505     -3.610670
   5.26157     -3.582505
   5.17809     -3.502276
   5.09460     -3.432023
   5.01112     -3.391812
   4.92764     -3.380269
   4.84416     -3.403579
   4.76067     -3.386399
   4.67719     -3.478202
   4.59371     -3.644314
   4.51023     -3.808198
   4.42674     -3.945730
   4.34326     -4.020533
   4.25978     -3.999759
   4.17629     -3.860429
   4.09281     -3.708960
   4.00933     -3.548550
   3.92585     -3.441597
   3.92585     -3.441597
   3.86266     -3.486320
   3.79947     -3.565707
   3.73628     -3.643104
   3.67309     -3.726015
   3.60990     -3.808960
   3.54671     -3.893524
   3.48352     -3.986862
   3.42033     -4.107719
   3.35714     -4.287182
   3.29395     -4.494365
   3.23076     -4.637863
   3.16757     -4.742575
   3.10438     -4.828344
   3.04119     -4.895581
   2.97800     -4.943509
   2.91481     -4.968821
   2.85162     -4.964195
   2.78843     -4.937439
   2.72524     -4.922648
   2.72524     -4.922648
   2.68560     -4.925220
   2.64597     -4.932275
   2.60633     -4.942874
   2.56669     -4.955904
   2.52705     -4.952061
   2.48742     -4.893413
   2.44778     -4.824260
   2.40814     -4.745427
   2.36850     -4.657980
   2.32886     -4.565146
   2.28923     -4.470907
   2.24959     -4.382947
   2.20995     -4.193437
   2.17031     -3.963636
   2.13068     -3.798158
   2.09104     -3.712217
   2.05140     -3.650074
   2.01176     -3.590892
   1.97212     -3.533929
   1.97212     -3.533929
   1.92828     -3.490787
   1.88443     -3.505032
   1.84059     -3.568863
   1.79674     -3.653402
   1.75290     -3.761049
   1.70905     -3.925639
   1.66521     -4.157672
   1.62136     -4.353081
   1.57752     -4.470051
   1.53367     -4.586737
   1.48983     -4.697495
   1.44598     -4.799157
   1.40214     -4.889540
   1.35829     -4.967659
   1.31445     -4.977303
   1.27060     -4.940642
   1.22676     -4.906077
   1.18291     -4.880308
   1.13907     -4.870630
   1.13907     -4.870630
   1.07912     -4.865704
   1.01917     -4.850662
   0.95922     -4.825026
   0.89927     -4.787643
   0.83931     -4.736424
   0.77936     -4.668252
   0.71941     -4.577752
   0.65946     -4.457193
   0.59951     -4.293268
   0.53956     -4.225426
   0.47961     -4.182173
   0.41966     -4.122734
   0.35971     -4.042389
   0.29976     -3.909188
   0.23980     -3.786522
   0.17985     -3.681224
   0.11990     -3.594470
   0.05995     -3.489637
   0.00000     -3.441597
 
# Band-Index:   29
   0.00000     -3.177280
   0.05995     -3.174908
   0.11990     -3.222948
   0.17985     -3.315767
   0.23980     -3.405654
   0.29976     -3.455631
   0.35971     -3.435062
   0.41966     -3.590383
   0.47961     -3.839353
   0.53956     -4.081502
   0.59951     -4.250659
   0.65946     -4.257888
   0.71941     -4.248093
   0.77936     -4.224161
   0.83931     -4.187388
   0.89927     -4.245952
   0.95922     -4.310719
   1.01917     -4.356476
   1.07912     -4.383407
   1.13907     -4.392280
   1.13907     -4.392280
   1.18291     -4.380406
   1.22676     -4.347817
   1.27060     -4.301154
   1.31445     -4.246550
   1.35829     -4.188594
   1.40214     -4.129340
   1.44598     -4.070456
   1.48983     -4.011884
   1.53367     -3.983604
   1.57752     -3.960884
   1.62136     -3.923479
   1.66521     -3.864737
   1.70905     -3.775975
   1.75290     -3.657376
   1.79674     -3.520769
   1.84059     -3.383975
   1.88443     -3.273404
   1.92828     -3.223488
   1.97212     -3.257532
   1.97212     -3.257532
   2.01176     -3.352754
   2.05140     -3.479215
   2.09104     -3.614923
   2.13068     -3.746501
   2.17031     -3.864083
   2.20995     -3.956964
   2.24959     -4.018123
   2.28923     -4.050234
   2.32886     -4.061565
   2.36850     -4.059686
   2.40814     -4.049490
   2.44778     -4.032651
   2.48742     -4.011205
   2.52705     -3.986606
   2.56669     -3.960108
   2.60633     -3.933424
   2.64597     -3.910268
   2.68560     -3.893784
   2.72524     -3.887611
   2.72524     -3.887611
   2.78843     -3.903778
   2.85162     -3.914968
   2.91481     -3.919656
   2.97800     -3.922136
   3.04119     -3.924929
   3.10438     -3.929525
   3.16757     -3.934294
   3.23076     -3.934252
   3.29395     -3.919474
   3.35714     -3.869843
   3.42033     -3.751949
   3.48352     -3.572022
   3.54671     -3.540521
   3.60990     -3.521928
   3.67309     -3.442337
   3.73628     -3.332051
   3.79947     -3.227719
   3.86266     -3.175149
   3.92585     -3.177280
   3.92585     -3.177280
   4.00933     -3.120321
   4.09281     -3.050238
   4.17629     -3.001975
   4.25978     -2.969167
   4.34326     -2.944429
   4.42674     -3.053100
   4.51023     -3.177473
   4.59371     -3.278192
   4.67719     -3.347139
   4.76067     -3.314565
   4.84416     -3.368998
   4.92764     -3.349144
   5.01112     -3.327989
   5.09460     -3.325066
   5.17809     -3.330885
   5.26157     -3.339863
   5.34505     -3.348449
   5.42854     -3.353680
   5.51202     -3.300783
   5.51202     -3.225882
   5.60639     -3.278025
   5.70077     -3.504281
   5.79515     -3.918366
   5.88952     -4.147040
   5.98390     -4.147121
   6.07828     -4.108674
   6.17265     -4.088767
   6.26703     -4.099170
   6.36141     -4.128707
   6.45578     -4.155175
   6.55016     -4.121979
   6.64453     -3.931130
   6.73891     -3.708165
   6.83329     -3.489685
   6.92766     -3.380467
   7.02204     -3.346732
   7.11642     -3.243053
   7.21079     -3.157053
   7.30517     -3.177280
   7.30517     -3.177280
   7.34809     -3.158363
   7.39101     -3.120295
   7.43393     -3.082493
   7.47685     -3.051378
   7.51976     -3.027358
   7.56268     -3.010689
   7.60560     -3.000675
   7.64852     -2.997326
   7.69144     -3.000994
   7.73436     -3.013728
   7.77728     -3.039012
   7.82020     -3.075138
   7.86312     -3.112920
   7.90604     -3.144966
   7.94896     -3.166089
   7.99187     -3.175476
   8.03479     -3.175662
   8.07771     -3.172682
   8.12063     -3.171391
 
# Band-Index:   30
   8.12063     -3.094139
   8.07771     -3.083375
   8.03479     -3.057777
   7.99187     -3.030235
   7.94896     -3.007048
   7.90604     -2.989788
   7.86312     -2.975927
   7.82020     -2.963113
   7.77728     -2.947986
   7.73436     -2.930595
   7.69144     -2.918839
   7.64852     -2.915324
   7.60560     -2.915926
   7.56268     -2.917379
   7.51976     -2.918935
   7.47685     -2.920110
   7.43393     -2.921407
   7.39101     -2.922692
   7.34809     -2.923711
   7.30517     -2.924164
   7.30517     -2.924164
   7.21079     -2.890322
   7.11642     -2.829215
   7.02204     -3.007311
   6.92766     -3.218328
   6.83329     -3.231782
   6.73891     -3.296240
   6.64453     -3.454949
   6.55016     -3.543707
   6.45578     -3.563174
   6.36141     -3.530264
   6.26703     -3.459742
   6.17265     -3.365172
   6.07828     -3.271543
   5.98390     -3.227446
   5.88952     -3.224735
   5.79515     -3.218881
   5.70077     -3.195513
   5.60639     -3.133292
   5.51202     -3.113847
   5.51202     -3.275385
   5.42854     -3.144312
   5.34505     -3.077205
   5.26157     -3.051915
   5.17809     -3.038294
   5.09460     -3.020360
   5.01112     -2.996430
   4.92764     -2.996442
   4.84416     -3.143174
   4.76067     -3.227209
   4.67719     -3.031562
   4.59371     -2.888787
   4.51023     -2.904763
   4.42674     -2.923242
   4.34326     -2.925976
   4.25978     -2.862712
   4.17629     -2.888260
   4.09281     -2.907781
   4.00933     -2.919903
   3.92585     -2.924164
   3.92585     -2.924164
   3.86266     -2.910698
   3.79947     -2.834390
   3.73628     -2.843981
   3.67309     -2.968582
   3.60990     -3.134347
   3.54671     -3.330243
   3.48352     -3.461869
   3.42033     -3.404318
   3.35714     -3.384928
   3.29395     -3.415111
   3.23076     -3.454293
   3.16757     -3.484403
   3.10438     -3.499853
   3.04119     -3.505409
   2.97800     -3.521424
   2.91481     -3.587040
   2.85162     -3.695375
   2.78843     -3.795014
   2.72524     -3.845302
   2.72524     -3.845302
   2.68560     -3.844575
   2.64597     -3.842266
   2.60633     -3.838891
   2.56669     -3.835130
   2.52705     -3.831051
   2.48742     -3.827233
   2.44778     -3.823376
   2.40814     -3.819186
   2.36850     -3.813468
   2.32886     -3.805477
   2.28923     -3.793286
   2.24959     -3.774901
   2.20995     -3.746718
   2.17031     -3.698324
   2.13068     -3.594250
   2.09104     -3.428686
   2.05140     -3.268481
   2.01176     -3.152379
   1.97212     -3.124729
   1.97212     -3.124729
   1.92828     -3.174335
   1.88443     -3.193301
   1.84059     -3.233253
   1.79674     -3.352822
   1.75290     -3.513776
   1.70905     -3.657107
   1.66521     -3.755000
   1.62136     -3.828930
   1.57752     -3.893407
   1.53367     -3.953371
   1.48983     -3.996488
   1.44598     -4.002825
   1.40214     -4.003486
   1.35829     -4.000364
   1.31445     -3.994462
   1.27060     -3.987414
   1.22676     -3.980627
   1.18291     -3.976084
   1.13907     -3.974445
   1.13907     -3.974445
   1.07912     -3.991073
   1.01917     -4.033243
   0.95922     -4.087077
   0.89927     -4.140507
   0.83931     -4.162290
   0.77936     -4.060229
   0.71941     -3.940200
   0.65946     -3.805174
   0.59951     -3.656178
   0.53956     -3.496438
   0.47961     -3.327408
   0.41966     -3.337990
   0.35971     -3.354336
   0.29976     -3.144733
   0.23980     -2.972471
   0.17985     -2.844779
   0.11990     -2.827970
   0.05995     -2.908299
   0.00000     -2.924164
 
# Band-Index:   31
   0.00000     -2.699321
   0.05995     -2.713519
   0.11990     -2.760247
   0.17985     -2.688952
   0.23980     -2.629077
   0.29976     -2.796693
   0.35971     -2.973252
   0.41966     -3.152097
   0.47961     -3.179760
   0.53956     -2.981776
   0.59951     -2.802655
   0.65946     -2.850052
   0.71941     -2.869471
   0.77936     -2.865638
   0.83931     -2.839631
   0.89927     -2.795428
   0.95922     -2.737776
   1.01917     -2.827147
   1.07912     -2.930372
   1.13907     -2.967877
   1.13907     -2.967877
   1.18291     -2.957073
   1.22676     -2.926068
   1.27060     -2.877294
   1.31445     -2.815428
   1.35829     -2.744862
   1.40214     -2.671501
   1.44598     -2.602337
   1.48983     -2.584920
   1.53367     -2.575317
   1.57752     -2.570284
   1.62136     -2.577174
   1.66521     -2.605275
   1.70905     -2.662806
   1.75290     -2.749231
   1.79674     -2.852132
   1.84059     -2.943196
   1.88443     -2.975522
   1.92828     -2.968574
   1.97212     -2.968137
   1.97212     -2.968137
   2.01176     -2.907629
   2.05140     -2.788412
   2.09104     -2.713203
   2.13068     -2.640440
   2.17031     -2.586083
   2.20995     -2.564974
   2.24959     -2.579050
   2.28923     -2.620070
   2.32886     -2.678899
   2.36850     -2.748783
   2.40814     -2.825977
   2.44778     -2.907121
   2.48742     -2.989364
   2.52705     -3.069770
   2.56669     -3.145096
   2.60633     -3.211254
   2.64597     -3.264652
   2.68560     -3.299594
   2.72524     -3.311682
   2.72524     -3.311682
   2.78843     -3.316411
   2.85162     -3.325050
   2.91481     -3.319559
   2.97800     -3.261712
   3.04119     -3.153784
   3.10438     -3.041845
   3.16757     -2.948890
   3.23076     -2.888172
   3.29395     -2.894795
   3.35714     -2.976127
   3.42033     -3.017192
   3.48352     -2.968573
   3.54671     -2.866306
   3.60990     -2.739380
   3.67309     -2.613182
   3.73628     -2.695881
   3.79947     -2.758170
   3.86266     -2.713142
   3.92585     -2.699321
   3.92585     -2.699321
   4.00933     -2.714123
   4.09281     -2.746848
   4.17629     -2.783563
   4.25978     -2.834233
   4.34326     -2.832968
   4.42674     -2.800952
   4.51023     -2.799618
   4.59371     -2.873892
   4.67719     -2.880900
   4.76067     -2.886049
   4.84416     -2.904414
   4.92764     -2.893752
   5.01112     -2.870197
   5.09460     -2.838844
   5.17809     -2.798792
   5.26157     -2.761258
   5.34505     -2.726852
   5.42854     -2.698335
   5.51202     -2.686154
   5.51202     -2.969944
   5.60639     -3.085374
   5.70077     -3.092784
   5.79515     -3.039705
   5.88952     -3.023974
   5.98390     -3.048184
   6.07828     -3.045347
   6.17265     -2.964017
   6.26703     -2.842513
   6.36141     -2.760535
   6.45578     -2.756179
   6.55016     -2.753878
   6.64453     -2.730242
   6.73891     -2.969905
   6.83329     -3.049460
   6.92766     -2.839536
   7.02204     -2.635643
   7.11642     -2.725105
   7.21079     -2.727695
   7.30517     -2.699321
   7.30517     -2.699321
   7.34809     -2.703151
   7.39101     -2.713624
   7.43393     -2.728197
   7.47685     -2.744483
   7.51976     -2.760324
   7.56268     -2.775828
   7.60560     -2.792155
   7.64852     -2.811538
   7.69144     -2.833197
   7.73436     -2.850661
   7.77728     -2.858090
   7.82020     -2.859368
   7.86312     -2.858587
   7.90604     -2.858260
   7.94896     -2.859325
   7.99187     -2.862331
   8.03479     -2.865266
   8.07771     -2.867434
   8.12063     -2.868135
 
# Band-Index:   32
   8.12063     -2.813562
   8.07771     -2.809289
   8.03479     -2.798356
   7.99187     -2.783802
   7.94896     -2.767645
   7.90604     -2.752904
   7.86312     -2.739008
   7.82020     -2.725026
   7.77728     -2.708840
   7.73436     -2.686224
   7.69144     -2.653053
   7.64852     -2.606544
   7.60560     -2.549615
   7.56268     -2.486634
   7.51976     -2.420999
   7.47685     -2.356519
   7.43393     -2.298340
   7.39101     -2.256431
   7.34809     -2.235270
   7.30517     -2.229778
   7.30517     -2.229778
   7.21079     -2.283558
   7.11642     -2.444274
   7.02204     -2.500708
   6.92766     -2.356547
   6.83329     -2.496410
   6.73891     -2.624713
   6.64453     -2.664948
   6.55016     -2.434804
   6.45578     -2.407706
   6.36141     -2.498865
   6.26703     -2.520163
   6.17265     -2.485110
   6.07828     -2.466500
   5.98390     -2.466568
   5.88952     -2.465812
   5.79515     -2.503533
   5.70077     -2.617071
   5.60639     -2.773008
   5.51202     -2.855547
   5.51202     -2.341909
   5.42854     -2.302296
   5.34505     -2.277036
   5.26157     -2.380727
   5.17809     -2.482267
   5.09460     -2.568780
   5.01112     -2.738341
   4.92764     -2.877409
   4.84416     -2.862179
   4.76067     -2.833200
   4.67719     -2.792371
   4.59371     -2.726106
   4.51023     -2.766788
   4.42674     -2.758741
   4.34326     -2.710766
   4.25978     -2.622004
   4.17629     -2.493899
   4.09281     -2.358605
   4.00933     -2.256166
   3.92585     -2.229778
   3.92585     -2.229778
   3.86266     -2.255378
   3.79947     -2.340971
   3.73628     -2.457849
   3.67309     -2.504037
   3.60990     -2.329746
   3.54671     -2.326701
   3.48352     -2.452349
   3.42033     -2.556457
   3.35714     -2.627592
   3.29395     -2.644457
   3.23076     -2.567866
   3.16757     -2.480886
   3.10438     -2.497868
   3.04119     -2.590666
   2.97800     -2.690980
   2.91481     -2.775302
   2.85162     -2.836901
   2.78843     -2.873737
   2.72524     -2.886013
   2.72524     -2.886013
   2.68560     -2.884156
   2.64597     -2.878663
   2.60633     -2.868317
   2.56669     -2.852485
   2.52705     -2.830226
   2.48742     -2.801516
   2.44778     -2.767036
   2.40814     -2.726687
   2.36850     -2.681522
   2.32886     -2.634220
   2.28923     -2.586595
   2.24959     -2.542315
   2.20995     -2.508031
   2.17031     -2.497171
   2.13068     -2.542638
   2.09104     -2.655026
   2.05140     -2.787147
   2.01176     -2.851393
   1.97212     -2.887859
   1.97212     -2.887859
   1.92828     -2.899683
   1.88443     -2.908877
   1.84059     -2.886869
   1.79674     -2.826782
   1.75290     -2.744588
   1.70905     -2.655813
   1.66521     -2.575701
   1.62136     -2.519036
   1.57752     -2.495410
   1.53367     -2.505674
   1.48983     -2.544502
   1.44598     -2.595449
   1.40214     -2.603671
   1.35829     -2.608184
   1.31445     -2.609076
   1.27060     -2.607189
   1.22676     -2.603735
   1.18291     -2.600544
   1.13907     -2.599378
   1.13907     -2.599378
   1.07912     -2.621317
   1.01917     -2.674532
   0.95922     -2.677345
   0.89927     -2.499546
   0.83931     -2.310850
   0.77936     -2.141066
   0.71941     -2.288516
   0.65946     -2.524193
   0.59951     -2.759825
   0.53956     -2.726081
   0.47961     -2.619951
   0.41966     -2.486798
   0.35971     -2.338253
   0.29976     -2.333967
   0.23980     -2.519511
   0.17985     -2.476475
   0.11990     -2.345502
   0.05995     -2.255217
   0.00000     -2.229778
 
# Band-Index:   33
   0.00000     -2.162179
   0.05995     -2.176026
   0.11990     -2.184728
   0.17985     -2.182656
   0.23980     -2.179078
   0.29976     -2.212567
   0.35971     -2.141800
   0.41966     -1.954693
   0.47961     -1.867993
   0.53956     -1.776060
   0.59951     -1.744297
   0.65946     -1.823018
   0.71941     -1.948469
   0.77936     -2.032935
   0.83931     -1.845137
   0.89927     -1.692375
   0.95922     -1.699820
   1.01917     -1.800960
   1.07912     -1.882012
   1.13907     -1.913947
   1.13907     -1.913947
   1.18291     -1.905413
   1.22676     -1.880800
   1.27060     -1.843809
   1.31445     -1.798758
   1.35829     -1.751833
   1.40214     -1.709000
   1.44598     -1.680896
   1.48983     -1.728346
   1.53367     -1.786914
   1.57752     -1.847290
   1.62136     -1.911796
   1.66521     -2.037859
   1.70905     -2.164512
   1.75290     -2.283429
   1.79674     -2.391210
   1.84059     -2.482420
   1.88443     -2.549913
   1.92828     -2.585570
   1.97212     -2.582748
   1.97212     -2.582748
   2.01176     -2.547980
   2.05140     -2.495074
   2.09104     -2.439879
   2.13068     -2.381429
   2.17031     -2.287707
   2.20995     -2.169565
   2.24959     -2.057474
   2.28923     -1.971114
   2.32886     -1.920308
   2.36850     -1.906636
   2.40814     -1.923701
   2.44778     -1.960681
   2.48742     -2.008346
   2.52705     -2.060320
   2.56669     -2.111084
   2.60633     -2.155617
   2.64597     -2.190640
   2.68560     -2.212743
   2.72524     -2.220888
   2.72524     -2.220888
   2.78843     -2.210621
   2.85162     -2.185431
   2.91481     -2.155893
   2.97800     -2.138048
   3.04119     -2.146180
   3.10438     -2.180019
   3.16757     -2.181809
   3.23076     -2.110516
   3.29395     -2.026906
   3.35714     -1.964979
   3.42033     -1.952047
   3.48352     -2.000469
   3.54671     -2.136062
   3.60990     -2.208339
   3.67309     -2.178543
   3.73628     -2.182294
   3.79947     -2.184543
   3.86266     -2.176530
   3.92585     -2.162179
   3.92585     -2.162179
   4.00933     -2.201769
   4.09281     -2.267223
   4.17629     -2.337342
   4.25978     -2.410190
   4.34326     -2.477103
   4.42674     -2.543901
   4.51023     -2.624095
   4.59371     -2.724454
   4.67719     -2.668376
   4.76067     -2.611339
   4.84416     -2.621227
   4.92764     -2.617644
   5.01112     -2.598949
   5.09460     -2.556471
   5.17809     -2.426904
   5.26157     -2.322314
   5.34505     -2.271378
   5.42854     -2.205118
   5.51202     -2.180307
   5.51202     -2.731977
   5.60639     -2.628288
   5.70077     -2.408620
   5.79515     -2.242933
   5.88952     -2.174097
   5.98390     -2.124604
   6.07828     -2.100107
   6.17265     -2.072621
   6.26703     -2.006569
   6.36141     -1.917167
   6.45578     -1.869765
   6.55016     -1.982247
   6.64453     -1.974793
   6.73891     -1.995792
   6.83329     -2.059245
   6.92766     -2.265370
   7.02204     -2.282330
   7.11642     -2.249913
   7.21079     -2.203447
   7.30517     -2.162179
   7.30517     -2.162179
   7.34809     -2.173676
   7.39101     -2.202022
   7.43393     -2.235456
   7.47685     -2.267255
   7.51976     -2.300901
   7.56268     -2.336879
   7.60560     -2.372701
   7.64852     -2.407131
   7.69144     -2.439523
   7.73436     -2.470256
   7.77728     -2.500014
   7.82020     -2.529785
   7.86312     -2.559151
   7.90604     -2.587067
   7.94896     -2.610817
   7.99187     -2.629074
   8.03479     -2.640115
   8.07771     -2.644733
   8.12063     -2.645104
 
# Band-Index:   34
   8.12063     -2.608416
   8.07771     -2.595982
   8.03479     -2.562758
   7.99187     -2.513322
   7.94896     -2.450573
   7.90604     -2.379780
   7.86312     -2.304499
   7.82020     -2.228696
   7.77728     -2.155772
   7.73436     -2.087881
   7.69144     -2.027300
   7.64852     -1.975087
   7.60560     -1.931288
   7.56268     -1.895997
   7.51976     -1.870799
   7.47685     -1.918546
   7.43393     -2.012168
   7.39101     -2.087517
   7.34809     -2.137064
   7.30517     -2.155285
   7.30517     -2.155285
   7.21079     -2.070157
   7.11642     -1.878266
   7.02204     -1.936454
   6.92766     -2.055759
   6.83329     -2.039196
   6.73891     -1.900951
   6.64453     -1.844164
   6.55016     -1.795161
   6.45578     -1.765344
   6.36141     -1.597590
   6.26703     -1.579178
   6.17265     -1.600458
   6.07828     -1.605200
   5.98390     -1.589231
   5.88952     -1.675389
   5.79515     -1.892585
   5.70077     -2.130436
   5.60639     -2.370732
   5.51202     -2.531141
   5.51202     -1.995237
   5.42854     -1.976596
   5.34505     -1.881311
   5.26157     -1.885447
   5.17809     -1.991629
   5.09460     -2.085307
   5.01112     -2.172197
   4.92764     -2.298457
   4.84416     -2.449699
   4.76067     -2.577941
   4.67719     -2.585977
   4.59371     -2.533258
   4.51023     -2.428436
   4.42674     -2.275929
   4.34326     -2.124525
   4.25978     -2.000248
   4.17629     -1.910856
   4.09281     -1.917238
   4.00933     -2.088417
   3.92585     -2.155285
   3.92585     -2.155285
   3.86266     -2.116427
   3.79947     -2.022781
   3.73628     -1.904785
   3.67309     -1.922155
   3.60990     -2.021931
   3.54671     -2.017311
   3.48352     -1.930998
   3.42033     -1.830965
   3.35714     -1.776930
   3.29395     -1.724963
   3.23076     -1.685782
   3.16757     -1.645283
   3.10438     -1.589340
   3.04119     -1.540382
   2.97800     -1.520337
   2.91481     -1.514861
   2.85162     -1.517834
   2.78843     -1.522561
   2.72524     -1.524906
   2.72524     -1.524906
   2.68560     -1.526586
   2.64597     -1.532035
   2.60633     -1.541548
   2.56669     -1.556836
   2.52705     -1.579124
   2.48742     -1.610758
   2.44778     -1.654327
   2.40814     -1.710517
   2.36850     -1.779505
   2.32886     -1.858580
   2.28923     -1.942193
   2.24959     -2.024010
   2.20995     -2.091908
   2.17031     -2.136758
   2.13068     -2.161457
   2.09104     -2.195426
   2.05140     -2.280840
   2.01176     -2.403742
   1.97212     -2.516896
   1.97212     -2.516896
   1.92828     -2.570682
   1.88443     -2.506388
   1.84059     -2.374130
   1.79674     -2.227281
   1.75290     -2.097812
   1.70905     -2.008480
   1.66521     -1.951132
   1.62136     -1.901680
   1.57752     -1.798961
   1.53367     -1.716293
   1.48983     -1.678158
   1.44598     -1.678516
   1.40214     -1.639342
   1.35829     -1.610764
   1.31445     -1.589709
   1.27060     -1.574484
   1.22676     -1.564185
   1.18291     -1.558393
   1.13907     -1.556382
   1.13907     -1.556382
   1.07912     -1.559971
   1.01917     -1.573401
   0.95922     -1.608694
   0.89927     -1.604546
   0.83931     -1.536039
   0.77936     -1.508699
   0.71941     -1.528882
   0.65946     -1.593112
   0.59951     -1.681064
   0.53956     -1.724834
   0.47961     -1.797875
   0.41966     -1.948664
   0.35971     -2.007446
   0.29976     -2.011080
   0.23980     -1.905411
   0.17985     -1.901694
   0.11990     -2.022518
   0.05995     -2.117639
   0.00000     -2.155285
 
# Band-Index:   35
   0.00000     -1.820921
   0.05995     -1.799198
   0.11990     -1.757101
   0.17985     -1.776157
   0.23980     -1.779532
   0.29976     -1.676544
   0.35971     -1.607193
   0.41966     -1.568069
   0.47961     -1.531660
   0.53956     -1.450445
   0.59951     -1.349479
   0.65946     -1.322533
   0.71941     -1.345692
   0.77936     -1.363978
   0.83931     -1.357912
   0.89927     -1.312104
   0.95922     -1.218791
   1.01917     -1.124295
   1.07912     -1.135403
   1.13907     -1.139052
   1.13907     -1.139052
   1.18291     -1.138302
   1.22676     -1.136250
   1.27060     -1.133741
   1.31445     -1.132683
   1.35829     -1.146702
   1.40214     -1.204686
   1.44598     -1.262486
   1.48983     -1.340124
   1.53367     -1.446027
   1.57752     -1.558747
   1.62136     -1.670312
   1.66521     -1.773199
   1.70905     -1.858688
   1.75290     -1.921597
   1.79674     -1.964203
   1.84059     -1.993769
   1.88443     -2.014814
   1.92828     -2.030783
   1.97212     -2.043665
   1.97212     -2.043665
   2.01176     -2.051727
   2.05140     -2.052213
   2.09104     -2.036027
   2.13068     -1.990984
   2.17031     -1.914969
   2.20995     -1.816728
   2.24959     -1.707181
   2.28923     -1.593901
   2.32886     -1.482123
   2.36850     -1.374772
   2.40814     -1.277114
   2.44778     -1.191201
   2.48742     -1.120905
   2.52705     -1.068142
   2.56669     -1.035467
   2.60633     -1.020359
   2.64597     -1.015772
   2.68560     -1.014693
   2.72524     -1.014510
   2.72524     -1.014510
   2.78843     -1.029480
   2.85162     -1.066207
   2.91481     -1.122733
   2.97800     -1.214242
   3.04119     -1.309458
   3.10438     -1.364694
   3.16757     -1.394801
   3.23076     -1.435775
   3.29395     -1.474011
   3.35714     -1.528925
   3.42033     -1.644615
   3.48352     -1.699436
   3.54671     -1.693560
   3.60990     -1.700413
   3.67309     -1.773582
   3.73628     -1.785992
   3.79947     -1.758225
   3.86266     -1.797573
   3.92585     -1.820921
   3.92585     -1.820921
   4.00933     -1.828778
   4.09281     -1.856178
   4.17629     -1.704361
   4.25978     -1.731543
   4.34326     -1.811604
   4.42674     -1.861451
   4.51023     -1.882084
   4.59371     -1.918518
   4.67719     -2.006080
   4.76067     -2.071976
   4.84416     -2.107110
   4.92764     -2.100772
   5.01112     -2.023215
   5.09460     -1.877309
   5.17809     -1.774496
   5.26157     -1.750016
   5.34505     -1.720704
   5.42854     -1.690530
   5.51202     -1.676278
   5.51202     -2.271678
   5.60639     -2.213149
   5.70077     -2.015167
   5.79515     -1.790514
   5.88952     -1.576958
   5.98390     -1.451608
   6.07828     -1.378497
   6.17265     -1.365670
   6.26703     -1.375948
   6.36141     -1.427383
   6.45578     -1.502779
   6.55016     -1.559772
   6.64453     -1.596418
   6.73891     -1.654995
   6.83329     -1.668821
   6.92766     -1.658617
   7.02204     -1.680472
   7.11642     -1.805960
   7.21079     -1.806111
   7.30517     -1.820921
   7.30517     -1.820921
   7.34809     -1.822040
   7.39101     -1.826431
   7.43393     -1.834545
   7.47685     -1.846333
   7.51976     -1.808062
   7.56268     -1.709201
   7.60560     -1.705692
   7.64852     -1.756001
   7.69144     -1.806115
   7.73436     -1.853973
   7.77728     -1.898785
   7.82020     -1.942246
   7.86312     -1.985154
   7.90604     -2.026866
   7.94896     -2.065362
   7.99187     -2.098371
   8.03479     -2.122908
   8.07771     -2.138257
   8.12063     -2.143401
 
# Band-Index:   36
   8.12063     -1.815713
   8.07771     -1.814929
   8.03479     -1.812771
   7.99187     -1.808548
   7.94896     -1.800312
   7.90604     -1.787863
   7.86312     -1.769046
   7.82020     -1.743935
   7.77728     -1.713370
   7.73436     -1.680367
   7.69144     -1.648761
   7.64852     -1.626265
   7.60560     -1.632204
   7.56268     -1.646936
   7.51976     -1.603029
   7.47685     -1.565648
   7.43393     -1.541420
   7.39101     -1.529674
   7.34809     -1.526837
   7.30517     -1.528320
   7.30517     -1.528320
   7.21079     -1.546097
   7.11642     -1.641584
   7.02204     -1.662398
   6.92766     -1.578871
   6.83329     -1.556572
   6.73891     -1.534645
   6.64453     -1.467183
   6.55016     -1.394283
   6.45578     -1.406669
   6.36141     -1.396876
   6.26703     -1.245281
   6.17265     -1.209342
   6.07828     -1.266421
   5.98390     -1.344852
   5.88952     -1.417390
   5.79515     -1.670159
   5.70077     -1.829127
   5.60639     -1.820341
   5.51202     -1.804750
   5.51202     -1.507088
   5.42854     -1.582532
   5.34505     -1.696741
   5.26157     -1.655261
   5.17809     -1.729849
   5.09460     -1.795718
   5.01112     -1.815505
   4.92764     -1.833262
   4.84416     -1.848077
   4.76067     -1.862276
   4.67719     -1.875212
   4.59371     -1.883785
   4.51023     -1.822345
   4.42674     -1.729255
   4.34326     -1.651441
   4.25978     -1.607064
   4.17629     -1.633920
   4.09281     -1.551389
   4.00933     -1.523171
   3.92585     -1.528320
   3.92585     -1.528320
   3.86266     -1.541894
   3.79947     -1.594840
   3.73628     -1.636881
   3.67309     -1.617691
   3.60990     -1.561502
   3.54671     -1.467165
   3.48352     -1.415919
   3.42033     -1.414117
   3.35714     -1.412471
   3.29395     -1.352111
   3.23076     -1.292375
   3.16757     -1.250643
   3.10438     -1.186611
   3.04119     -1.108246
   2.97800     -1.035773
   2.91481     -0.980652
   2.85162     -0.916121
   2.78843     -0.869269
   2.72524     -0.857055
   2.72524     -0.857055
   2.68560     -0.862368
   2.64597     -0.879228
   2.60633     -0.909505
   2.56669     -0.954472
   2.52705     -1.011439
   2.48742     -1.080325
   2.44778     -1.156513
   2.40814     -1.233269
   2.36850     -1.304616
   2.32886     -1.361448
   2.28923     -1.395833
   2.24959     -1.439615
   2.20995     -1.571848
   2.17031     -1.711798
   2.13068     -1.849607
   2.09104     -1.963372
   2.05140     -2.014421
   2.01176     -2.016827
   1.97212     -2.002178
   1.97212     -2.002178
   1.92828     -1.979527
   1.88443     -1.954556
   1.84059     -1.926208
   1.79674     -1.889330
   1.75290     -1.831971
   1.70905     -1.739012
   1.66521     -1.623295
   1.62136     -1.513205
   1.57752     -1.427809
   1.53367     -1.366587
   1.48983     -1.315166
   1.44598     -1.250068
   1.40214     -1.182163
   1.35829     -1.143289
   1.31445     -1.091781
   1.27060     -1.044572
   1.22676     -1.008260
   1.18291     -0.985174
   1.13907     -0.976921
   1.13907     -0.976921
   1.07912     -1.015617
   1.01917     -1.107206
   0.95922     -1.107485
   0.89927     -1.098940
   0.83931     -1.134558
   0.77936     -1.192857
   0.71941     -1.240432
   0.65946     -1.270552
   0.59951     -1.291883
   0.53956     -1.315043
   0.47961     -1.347260
   0.41966     -1.390218
   0.35971     -1.445672
   0.29976     -1.511992
   0.23980     -1.581554
   0.17985     -1.635192
   0.11990     -1.596403
   0.05995     -1.541608
   0.00000     -1.528320
 
# Band-Index:   37
   0.00000     -1.520569
   0.05995     -1.514540
   0.11990     -1.498172
   0.17985     -1.473692
   0.23980     -1.440938
   0.29976     -1.396138
   0.35971     -1.332706
   0.41966     -1.257825
   0.47961     -1.190142
   0.53956     -1.149369
   0.59951     -1.129188
   0.65946     -1.062276
   0.71941     -0.961096
   0.77936     -0.939114
   0.83931     -0.954494
   0.89927     -0.967967
   0.95922     -0.935998
   1.01917     -0.895175
   1.07912     -0.866575
   1.13907     -0.856851
   1.13907     -0.856851
   1.18291     -0.863936
   1.22676     -0.884314
   1.27060     -0.919198
   1.31445     -0.969475
   1.35829     -1.037461
   1.40214     -1.119994
   1.44598     -1.211433
   1.48983     -1.297399
   1.53367     -1.358478
   1.57752     -1.388584
   1.62136     -1.397647
   1.66521     -1.395467
   1.70905     -1.387688
   1.75290     -1.373504
   1.79674     -1.355697
   1.84059     -1.338812
   1.88443     -1.325208
   1.92828     -1.318476
   1.97212     -1.323097
   1.97212     -1.323097
   2.01176     -1.334177
   2.05140     -1.349207
   2.09104     -1.367374
   2.13068     -1.384264
   2.17031     -1.398526
   2.20995     -1.407782
   2.24959     -1.408871
   2.28923     -1.320265
   2.32886     -1.219086
   2.36850     -1.139227
   2.40814     -1.080073
   2.44778     -1.032664
   2.48742     -0.989555
   2.52705     -0.949703
   2.56669     -0.911910
   2.60633     -0.878237
   2.64597     -0.855803
   2.68560     -0.839407
   2.72524     -0.833544
   2.72524     -0.833544
   2.78843     -0.853975
   2.85162     -0.896683
   2.91481     -0.944762
   2.97800     -0.980428
   3.04119     -0.971110
   3.10438     -0.962602
   3.16757     -0.995914
   3.23076     -1.052450
   3.29395     -1.110342
   3.35714     -1.161598
   3.42033     -1.225518
   3.48352     -1.307684
   3.54671     -1.374041
   3.60990     -1.408708
   3.67309     -1.440232
   3.73628     -1.470387
   3.79947     -1.495482
   3.86266     -1.513361
   3.92585     -1.520569
   3.92585     -1.520569
   4.00933     -1.518573
   4.09281     -1.516021
   4.17629     -1.512033
   4.25978     -1.461316
   4.34326     -1.473240
   4.42674     -1.469594
   4.51023     -1.456216
   4.59371     -1.439562
   4.67719     -1.422474
   4.76067     -1.407157
   4.84416     -1.395914
   4.92764     -1.388910
   5.01112     -1.386975
   5.09460     -1.386847
   5.17809     -1.387286
   5.26157     -1.517350
   5.34505     -1.467023
   5.42854     -1.409108
   5.51202     -1.386891
   5.51202     -1.270673
   5.60639     -1.283547
   5.70077     -1.315035
   5.79515     -1.355622
   5.88952     -1.383196
   5.98390     -1.170466
   6.07828     -1.023256
   6.17265     -1.066287
   6.26703     -1.165169
   6.36141     -1.178107
   6.45578     -1.173491
   6.55016     -1.165518
   6.64453     -1.159232
   6.73891     -1.160657
   6.83329     -1.182878
   6.92766     -1.333192
   7.02204     -1.463582
   7.11642     -1.498502
   7.21079     -1.513370
   7.30517     -1.520569
   7.30517     -1.520569
   7.34809     -1.518725
   7.39101     -1.511878
   7.43393     -1.505941
   7.47685     -1.505386
   7.51976     -1.509219
   7.56268     -1.510226
   7.60560     -1.482308
   7.64852     -1.454128
   7.69144     -1.458184
   7.73436     -1.457894
   7.77728     -1.453972
   7.82020     -1.447246
   7.86312     -1.439609
   7.90604     -1.431697
   7.94896     -1.424153
   7.99187     -1.417341
   8.03479     -1.412079
   8.07771     -1.408794
   8.12063     -1.407699
 
# Band-Index:   38
   8.12063     -0.873828
   8.07771     -0.875782
   8.03479     -0.881832
   7.99187     -0.893659
   7.94896     -0.912220
   7.90604     -0.941442
   7.86312     -0.983172
   7.82020     -1.040304
   7.77728     -1.113433
   7.73436     -1.200713
   7.69144     -1.298499
   7.64852     -1.398848
   7.60560     -1.443266
   7.56268     -1.430169
   7.51976     -1.413936
   7.47685     -1.396313
   7.43393     -1.377929
   7.39101     -1.361370
   7.34809     -1.349918
   7.30517     -1.346166
   7.30517     -1.346166
   7.21079     -1.358489
   7.11642     -1.330714
   7.02204     -1.262067
   6.92766     -1.202106
   6.83329     -1.145591
   6.73891     -1.045348
   6.64453     -1.057295
   6.55016     -1.088677
   6.45578     -1.021227
   6.36141     -0.926537
   6.26703     -0.895364
   6.17265     -0.920214
   6.07828     -0.982053
   5.98390     -1.042342
   5.88952     -1.119192
   5.79515     -1.137243
   5.70077     -1.112066
   5.60639     -1.082259
   5.51202     -1.071274
   5.51202     -1.374608
   5.42854     -1.377795
   5.34505     -1.382873
   5.26157     -1.386685
   5.17809     -1.351450
   5.09460     -1.171075
   5.01112     -1.050810
   4.92764     -0.974562
   4.84416     -0.923681
   4.76067     -0.885597
   4.67719     -0.865397
   4.59371     -0.870212
   4.51023     -0.919568
   4.42674     -1.031689
   4.34326     -1.204006
   4.25978     -1.406606
   4.17629     -1.432526
   4.09281     -1.396358
   4.00933     -1.361198
   3.92585     -1.346166
   3.92585     -1.346166
   3.86266     -1.356281
   3.79947     -1.357649
   3.73628     -1.317903
   3.67309     -1.247172
   3.60990     -1.168797
   3.54671     -1.123118
   3.48352     -1.091758
   3.42033     -1.051403
   3.35714     -1.003949
   3.29395     -0.962500
   3.23076     -0.923306
   3.16757     -0.889742
   3.10438     -0.893087
   3.04119     -0.885191
   2.97800     -0.863445
   2.91481     -0.843483
   2.85162     -0.830249
   2.78843     -0.825389
   2.72524     -0.826850
   2.72524     -0.826850
   2.68560     -0.833032
   2.64597     -0.850890
   2.60633     -0.877240
   2.56669     -0.898133
   2.52705     -0.904491
   2.48742     -0.896874
   2.44778     -0.877888
   2.40814     -0.906621
   2.36850     -0.953776
   2.32886     -0.989510
   2.28923     -1.010500
   2.24959     -1.021634
   2.20995     -1.026637
   2.17031     -1.028926
   2.13068     -1.029940
   2.09104     -1.031495
   2.05140     -1.034642
   2.01176     -1.040570
   1.97212     -1.048569
   1.97212     -1.048569
   1.92828     -1.061489
   1.88443     -1.078491
   1.84059     -1.098511
   1.79674     -1.120285
   1.75290     -1.142553
   1.70905     -1.160667
   1.66521     -1.168243
   1.62136     -1.157016
   1.57752     -1.118887
   1.53367     -1.057207
   1.48983     -0.989208
   1.44598     -0.947155
   1.40214     -0.969988
   1.35829     -0.960394
   1.31445     -0.922488
   1.27060     -0.876881
   1.22676     -0.837692
   1.18291     -0.835470
   1.13907     -0.836722
   1.13907     -0.836722
   1.07912     -0.823132
   1.01917     -0.816969
   0.95922     -0.831530
   0.89927     -0.849660
   0.83931     -0.865370
   0.77936     -0.881040
   0.71941     -0.957028
   0.65946     -0.986866
   0.59951     -1.016005
   0.53956     -1.043908
   0.47961     -1.068833
   0.41966     -1.093328
   0.35971     -1.127454
   0.29976     -1.194353
   0.23980     -1.268052
   0.17985     -1.326109
   0.11990     -1.358426
   0.05995     -1.355794
   0.00000     -1.346166
 
# Band-Index:   39
   0.00000     -1.169170
   0.05995     -1.163035
   0.11990     -1.150781
   0.17985     -1.136813
   0.23980     -1.121248
   0.29976     -1.100986
   0.35971     -1.056615
   0.41966     -0.970005
   0.47961     -0.879920
   0.53956     -0.808812
   0.59951     -0.806806
   0.65946     -0.779893
   0.71941     -0.806041
   0.77936     -0.852073
   0.83931     -0.832063
   0.89927     -0.807306
   0.95922     -0.800248
   1.01917     -0.806284
   1.07912     -0.808085
   1.13907     -0.804143
   1.13907     -0.804143
   1.18291     -0.813572
   1.22676     -0.834067
   1.27060     -0.835108
   1.31445     -0.841580
   1.35829     -0.857215
   1.40214     -0.885188
   1.44598     -0.929094
   1.48983     -0.902287
   1.53367     -0.842782
   1.57752     -0.774198
   1.62136     -0.702279
   1.66521     -0.631262
   1.70905     -0.565042
   1.75290     -0.506016
   1.79674     -0.456831
   1.84059     -0.420572
   1.88443     -0.397005
   1.92828     -0.386526
   1.97212     -0.390150
   1.97212     -0.390150
   2.01176     -0.405212
   2.05140     -0.430623
   2.09104     -0.465827
   2.13068     -0.509016
   2.17031     -0.558027
   2.20995     -0.610924
   2.24959     -0.665339
   2.28923     -0.718923
   2.32886     -0.768421
   2.36850     -0.812241
   2.40814     -0.849403
   2.44778     -0.856432
   2.48742     -0.812138
   2.52705     -0.778931
   2.56669     -0.757471
   2.60633     -0.745318
   2.64597     -0.741079
   2.68560     -0.740610
   2.72524     -0.741121
   2.72524     -0.741121
   2.78843     -0.733333
   2.85162     -0.717197
   2.91481     -0.706235
   2.97800     -0.713208
   3.04119     -0.740356
   3.10438     -0.782990
   3.16757     -0.811093
   3.23076     -0.794858
   3.29395     -0.799423
   3.35714     -0.843547
   3.42033     -0.895256
   3.48352     -0.961531
   3.54671     -1.041475
   3.60990     -1.105858
   3.67309     -1.129678
   3.73628     -1.143037
   3.79947     -1.154284
   3.86266     -1.164115
   3.92585     -1.169170
   3.92585     -1.169170
   4.00933     -1.175102
   4.09281     -1.159700
   4.17629     -1.091031
   4.25978     -0.994930
   4.34326     -0.893160
   4.42674     -0.796469
   4.51023     -0.709524
   4.59371     -0.638751
   4.67719     -0.582589
   4.76067     -0.544347
   4.84416     -0.523857
   4.92764     -0.518454
   5.01112     -0.593676
   5.09460     -0.734415
   5.17809     -0.856685
   5.26157     -0.961300
   5.34505     -1.069110
   5.42854     -1.185730
   5.51202     -1.259454
   5.51202     -0.410175
   5.60639     -0.436819
   5.70077     -0.511194
   5.79515     -0.612752
   5.88952     -0.714831
   5.98390     -0.784513
   6.07828     -0.806576
   6.17265     -0.811471
   6.26703     -0.824817
   6.36141     -0.816198
   6.45578     -0.764210
   6.55016     -0.719571
   6.64453     -0.716298
   6.73891     -0.755466
   6.83329     -0.857729
   6.92766     -0.986523
   7.02204     -1.087675
   7.11642     -1.144311
   7.21079     -1.165898
   7.30517     -1.169170
   7.30517     -1.169170
   7.34809     -1.171237
   7.39101     -1.175887
   7.43393     -1.174914
   7.47685     -1.159713
   7.51976     -1.128004
   7.56268     -1.084601
   7.60560     -1.032422
   7.64852     -0.976352
   7.69144     -0.917545
   7.73436     -0.857731
   7.77728     -0.797976
   7.82020     -0.741406
   7.86312     -0.691363
   7.90604     -0.649678
   7.94896     -0.616355
   7.99187     -0.591857
   8.03479     -0.573793
   8.07771     -0.562787
   8.12063     -0.559245
 
# Band-Index:   40
   8.12063     -0.317165
   8.07771     -0.322866
   8.03479     -0.339941
   7.99187     -0.365495
   7.94896     -0.395708
   7.90604     -0.428102
   7.86312     -0.457694
   7.82020     -0.482240
   7.77728     -0.501321
   7.73436     -0.516629
   7.69144     -0.529392
   7.64852     -0.540981
   7.60560     -0.553002
   7.56268     -0.564613
   7.51976     -0.574407
   7.47685     -0.584298
   7.43393     -0.592298
   7.39101     -0.598507
   7.34809     -0.602528
   7.30517     -0.604121
   7.30517     -0.604121
   7.21079     -0.598221
   7.11642     -0.587030
   7.02204     -0.583177
   6.92766     -0.601532
   6.83329     -0.647605
   6.73891     -0.682431
   6.64453     -0.639190
   6.55016     -0.576079
   6.45578     -0.524310
   6.36141     -0.496350
   6.26703     -0.493039
   6.17265     -0.510244
   6.07828     -0.529621
   5.98390     -0.510426
   5.88952     -0.453128
   5.79515     -0.381903
   5.70077     -0.312220
   5.60639     -0.259295
   5.51202     -0.239830
   5.51202     -0.574153
   5.42854     -0.573535
   5.34505     -0.569736
   5.26157     -0.562751
   5.17809     -0.551875
   5.09460     -0.536877
   5.01112     -0.524728
   4.92764     -0.461813
   4.84416     -0.366444
   4.76067     -0.321005
   4.67719     -0.325217
   4.59371     -0.365551
   4.51023     -0.423364
   4.42674     -0.475374
   4.34326     -0.513367
   4.25978     -0.541836
   4.17629     -0.566223
   4.09281     -0.586266
   4.00933     -0.599143
   3.92585     -0.604121
   3.92585     -0.604121
   3.86266     -0.601693
   3.79947     -0.596979
   3.73628     -0.593488
   3.67309     -0.595684
   3.60990     -0.607727
   3.54671     -0.631830
   3.48352     -0.664070
   3.42033     -0.697428
   3.35714     -0.722073
   3.29395     -0.731863
   3.23076     -0.698720
   3.16757     -0.640593
   3.10438     -0.587409
   3.04119     -0.545561
   2.97800     -0.513724
   2.91481     -0.488465
   2.85162     -0.469087
   2.78843     -0.456436
   2.72524     -0.452347
   2.72524     -0.452347
   2.68560     -0.453677
   2.64597     -0.458482
   2.60633     -0.465903
   2.56669     -0.473995
   2.52705     -0.479230
   2.48742     -0.479998
   2.44778     -0.475263
   2.40814     -0.465676
   2.36850     -0.450110
   2.32886     -0.430923
   2.28923     -0.408323
   2.24959     -0.383627
   2.20995     -0.357477
   2.17031     -0.331631
   2.13068     -0.306587
   2.09104     -0.284293
   2.05140     -0.266106
   2.01176     -0.253244
   1.97212     -0.245901
   1.97212     -0.245901
   1.92828     -0.245405
   1.88443     -0.252757
   1.84059     -0.266820
   1.79674     -0.286970
   1.75290     -0.312451
   1.70905     -0.340121
   1.66521     -0.368684
   1.62136     -0.396088
   1.57752     -0.420790
   1.53367     -0.440315
   1.48983     -0.452412
   1.44598     -0.456230
   1.40214     -0.451124
   1.35829     -0.438085
   1.31445     -0.420805
   1.27060     -0.403675
   1.22676     -0.390228
   1.18291     -0.381244
   1.13907     -0.378733
   1.13907     -0.378733
   1.07912     -0.387024
   1.01917     -0.413682
   0.95922     -0.458811
   0.89927     -0.519066
   0.83931     -0.592624
   0.77936     -0.667531
   0.71941     -0.731592
   0.65946     -0.773501
   0.59951     -0.772433
   0.53956     -0.799013
   0.47961     -0.755634
   0.41966     -0.699857
   0.35971     -0.652034
   0.29976     -0.619985
   0.23980     -0.603398
   0.17985     -0.598591
   0.11990     -0.599657
   0.05995     -0.602409
   0.00000     -0.604121
 
# Band-Index:   41
   0.00000      1.776944
   0.05995      1.788896
   0.11990      1.825568
   0.17985      1.893820
   0.23980      1.998135
   0.29976      2.137937
   0.35971      2.309220
   0.41966      2.506028
   0.47961      2.720691
   0.53956      2.946174
   0.59951      3.076892
   0.65946      3.156079
   0.71941      3.221963
   0.77936      3.267884
   0.83931      3.291397
   0.89927      3.294422
   0.95922      3.283550
   1.01917      3.267015
   1.07912      3.253206
   1.13907      3.247677
   1.13907      3.247677
   1.18291      3.247009
   1.22676      3.245087
   1.27060      3.242117
   1.31445      3.238746
   1.35829      3.235534
   1.40214      3.233940
   1.44598      3.234292
   1.48983      3.237966
   1.53367      3.245764
   1.57752      3.258018
   1.62136      3.274840
   1.66521      3.294454
   1.70905      3.315506
   1.75290      3.336411
   1.79674      3.354944
   1.84059      3.369548
   1.88443      3.379931
   1.92828      3.386193
   1.97212      3.389172
   1.97212      3.389172
   2.01176      3.390964
   2.05140      3.394021
   2.09104      3.398786
   2.13068      3.408273
   2.17031      3.422903
   2.20995      3.444553
   2.24959      3.473656
   2.28923      3.509841
   2.32886      3.552841
   2.36850      3.600735
   2.40814      3.650040
   2.44778      3.696355
   2.48742      3.734120
   2.52705      3.759404
   2.56669      3.773740
   2.60633      3.780904
   2.64597      3.784143
   2.68560      3.785639
   2.72524      3.786024
   2.72524      3.786024
   2.78843      3.764634
   2.85162      3.704761
   2.91481      3.618222
   2.97800      3.518791
   3.04119      3.419138
   3.10438      3.326766
   3.16757      3.245308
   3.23076      3.171810
   3.29395      3.098513
   3.35714      2.950562
   3.42033      2.723350
   3.48352      2.507607
   3.54671      2.310315
   3.60990      2.138771
   3.67309      1.998880
   3.73628      1.894326
   3.79947      1.825893
   3.86266      1.788914
   3.92585      1.776944
   3.92585      1.776944
   4.00933      1.823353
   4.09281      1.962224
   4.17629      2.186185
   4.25978      2.472694
   4.34326      2.729075
   4.42674      2.726988
   4.51023      2.721335
   4.59371      2.711341
   4.67719      2.696678
   4.76067      2.678155
   4.84416      2.655184
   4.92764      2.629800
   5.01112      2.600960
   5.09460      2.570214
   5.17809      2.473029
   5.26157      2.186983
   5.34505      1.964709
   5.42854      1.826872
   5.51202      1.780806
   5.51202      3.384683
   5.60639      3.376954
   5.70077      3.351053
   5.79515      3.293060
   5.88952      3.184009
   5.98390      3.048740
   6.07828      2.937265
   6.17265      2.878474
   6.26703      2.867211
   6.36141      2.873707
   6.45578      2.870398
   6.55016      2.848973
   6.64453      2.815105
   6.73891      2.777224
   6.83329      2.743974
   6.92766      2.492799
   7.02204      2.206675
   7.11642      1.977229
   7.21079      1.829148
   7.30517      1.776944
   7.30517      1.776944
   7.34809      1.788617
   7.39101      1.823506
   7.43393      1.881668
   7.47685      1.962371
   7.51976      2.064682
   7.56268      2.186163
   7.60560      2.323463
   7.64852      2.472717
   7.69144      2.630000
   7.73436      2.703931
   7.77728      2.701414
   7.82020      2.698907
   7.86312      2.696150
   7.90604      2.693470
   7.94896      2.691273
   7.99187      2.689333
   8.03479      2.688177
   8.07771      2.687480
   8.12063      2.687221
 
# Band-Index:   42
   8.12063      3.722499
   8.07771      3.708089
   8.03479      3.665137
   7.99187      3.595230
   7.94896      3.501373
   7.90604      3.386173
   7.86312      3.253605
   7.82020      3.107316
   7.77728      2.951676
   7.73436      2.791273
   7.69144      2.706758
   7.64852      2.708914
   7.60560      2.710977
   7.56268      2.713022
   7.51976      2.715003
   7.47685      2.716729
   7.43393      2.712191
   7.39101      2.643691
   7.34809      2.587089
   7.30517      2.567624
   7.30517      2.567624
   7.21079      2.664799
   7.11642      2.712906
   7.02204      2.710941
   6.92766      2.721084
   6.83329      2.808984
   6.73891      3.124735
   6.64453      3.408807
   6.55016      3.628549
   6.45578      3.775382
   6.36141      3.849532
   6.26703      3.850292
   6.17265      3.798904
   6.07828      3.728065
   5.98390      3.669334
   5.88952      3.641261
   5.79515      3.649886
   5.70077      3.686495
   5.60639      3.732391
   5.51202      3.754172
   5.51202      2.470031
   5.42854      2.472849
   5.34505      2.484930
   5.26157      2.508256
   5.17809      2.538357
   5.09460      2.791375
   5.01112      3.106710
   4.92764      3.384964
   4.84416      3.593588
   4.76067      3.706934
   4.67719      3.708312
   4.59371      3.596345
   4.51023      3.386997
   4.42674      3.107364
   4.34326      2.791113
   4.25978      2.728338
   4.17629      2.726481
   4.09281      2.725462
   4.00933      2.645690
   3.92585      2.567624
   3.92585      2.567624
   3.86266      2.606610
   3.79947      2.687461
   3.73628      2.688478
   3.67309      2.697351
   3.60990      2.728834
   3.54671      2.783831
   3.48352      2.857077
   3.42033      2.939812
   3.35714      3.023937
   3.29395      3.187243
   3.23076      3.419443
   3.16757      3.642448
   3.10438      3.803315
   3.04119      3.859329
   2.97800      3.911326
   2.91481      3.963054
   2.85162      4.015368
   2.78843      4.070877
   2.72524      4.115683
   2.72524      4.115683
   2.68560      4.109438
   2.64597      4.091277
   2.60633      4.063471
   2.56669      4.029148
   2.52705      3.996042
   2.48742      3.970479
   2.44778      3.957007
   2.40814      3.954924
   2.36850      3.961259
   2.32886      3.973088
   2.28923      3.962337
   2.24959      3.913477
   2.20995      3.871446
   2.17031      3.836486
   2.13068      3.809048
   2.09104      3.788384
   2.05140      3.774017
   2.01176      3.763729
   1.97212      3.757371
   1.97212      3.757371
   1.92828      3.754069
   1.88443      3.753238
   1.84059      3.757222
   1.79674      3.767502
   1.75290      3.784256
   1.70905      3.809554
   1.66521      3.844104
   1.62136      3.886511
   1.57752      3.935929
   1.53367      3.963006
   1.48983      3.995992
   1.44598      4.035721
   1.40214      4.080157
   1.35829      4.125648
   1.31445      4.148689
   1.27060      4.150759
   1.22676      4.150364
   1.18291      4.149432
   1.13907      4.149038
   1.13907      4.149038
   1.07912      4.128965
   1.01917      4.071233
   0.95922      3.985226
   0.89927      3.883075
   0.83931      3.777695
   0.77936      3.678467
   0.71941      3.568889
   0.65946      3.391934
   0.59951      3.173760
   0.53956      2.992443
   0.47961      2.909819
   0.41966      2.835566
   0.35971      2.774854
   0.29976      2.731456
   0.23980      2.707356
   0.17985      2.701447
   0.11990      2.709156
   0.05995      2.608096
   0.00000      2.567624
 
# Band-Index:   43
   0.00000      2.726769
   0.05995      2.721382
   0.11990      2.723929
   0.17985      2.901028
   0.23980      3.123394
   0.29976      3.365370
   0.35971      3.416786
   0.41966      3.473348
   0.47961      3.535142
   0.53956      3.599929
   0.59951      3.666602
   0.65946      3.688984
   0.71941      3.751775
   0.77936      3.892601
   0.83931      3.979042
   0.89927      4.065260
   0.95922      4.143944
   1.01917      4.207178
   1.07912      4.247593
   1.13907      4.261599
   1.13907      4.261599
   1.18291      4.255368
   1.22676      4.237041
   1.27060      4.207496
   1.31445      4.169229
   1.35829      4.141316
   1.40214      4.123929
   1.44598      4.091248
   1.48983      4.044083
   1.53367      3.989866
   1.57752      3.938700
   1.62136      3.923771
   1.66521      3.918584
   1.70905      3.923379
   1.75290      3.937186
   1.79674      3.958224
   1.84059      3.983558
   1.88443      4.009765
   1.92828      4.033198
   1.97212      4.050419
   1.97212      4.050419
   2.01176      4.059449
   2.05140      4.062215
   2.09104      4.058629
   2.13068      4.049891
   2.17031      4.037327
   2.20995      4.022089
   2.24959      4.005453
   2.28923      3.988478
   2.32886      4.016651
   2.36850      4.074162
   2.40814      4.128322
   2.44778      4.165973
   2.48742      4.181103
   2.52705      4.184257
   2.56669      4.182970
   2.60633      4.180814
   2.64597      4.178590
   2.68560      4.177200
   2.72524      4.176293
   2.72524      4.176293
   2.78843      4.235880
   2.85162      4.331829
   2.91481      4.365962
   2.97800      4.227297
   3.04119      4.059382
   3.10438      3.873316
   3.16757      3.780127
   3.23076      3.742550
   3.29395      3.697182
   3.35714      3.624692
   3.42033      3.538337
   3.48352      3.453893
   3.54671      3.371482
   3.60990      3.268872
   3.67309      3.098363
   3.73628      2.899336
   3.79947      2.739192
   3.86266      2.721108
   3.92585      2.726769
   3.92585      2.726769
   4.00933      2.726291
   4.09281      2.863783
   4.17629      3.184594
   4.25978      3.490034
   4.34326      3.665374
   4.42674      3.860833
   4.51023      4.016378
   4.59371      3.955249
   4.67719      3.947387
   4.76067      3.997029
   4.84416      4.085869
   4.92764      3.941864
   5.01112      3.756380
   5.09460      3.551273
   5.17809      3.352338
   5.26157      3.183370
   5.34505      2.989222
   5.42854      2.820134
   5.51202      2.761628
   5.51202      3.986221
   5.60639      3.957894
   5.70077      3.886023
   5.79515      3.817571
   5.88952      3.804578
   5.98390      3.850328
   6.07828      3.918666
   6.17265      3.976647
   6.26703      4.018954
   6.36141      4.051788
   6.45578      4.050223
   6.55016      3.936265
   6.64453      3.848544
   6.73891      3.817123
   6.83329      3.658204
   6.92766      3.489251
   7.02204      3.289483
   7.11642      2.930945
   7.21079      2.723072
   7.30517      2.726769
   7.30517      2.726769
   7.34809      2.726652
   7.39101      2.726318
   7.43393      2.747402
   7.47685      2.861125
   7.51976      3.002546
   7.56268      3.153716
   7.60560      3.295766
   7.64852      3.412836
   7.69144      3.514953
   7.73436      3.614268
   7.77728      3.712704
   7.82020      3.807034
   7.86312      3.890832
   7.90604      3.952858
   7.94896      3.981566
   7.99187      3.984540
   8.03479      3.980246
   8.07771      3.976219
   8.12063      3.974899
 
# Band-Index:   44
   8.12063      4.205653
   8.07771      4.203366
   8.03479      4.193925
   7.99187      4.173678
   7.94896      4.148492
   7.90604      4.136952
   7.86312      4.152252
   7.82020      4.184756
   7.77728      4.180837
   7.73436      4.008997
   7.69144      3.823049
   7.64852      3.645805
   7.60560      3.497220
   7.56268      3.394302
   7.51976      3.327460
   7.47685      3.282651
   7.43393      3.253201
   7.39101      3.235531
   7.34809      3.226670
   7.30517      3.223600
   7.30517      3.223600
   7.21079      3.232632
   7.11642      3.275727
   7.02204      3.383923
   6.92766      3.740055
   6.83329      3.992454
   6.73891      3.909950
   6.64453      3.995364
   6.55016      4.091518
   6.45578      4.187660
   6.36141      4.392175
   6.26703      4.578016
   6.17265      4.563673
   6.07828      4.513790
   5.98390      4.487170
   5.88952      4.466773
   5.79515      4.425101
   5.70077      4.359505
   5.60639      4.299060
   5.51202      4.274513
   5.51202      2.952151
   5.42854      2.978765
   5.34505      3.056671
   5.26157      3.249327
   5.17809      3.568933
   5.09460      3.901226
   5.01112      4.157451
   4.92764      4.196410
   4.84416      4.093989
   4.76067      4.182518
   4.67719      4.224744
   4.59371      4.178133
   4.51023      4.044170
   4.42674      4.122041
   4.34326      3.966175
   4.25978      3.565149
   4.17629      3.356965
   4.09281      3.272771
   4.00933      3.233170
   3.92585      3.223600
   3.92585      3.223600
   3.86266      3.233722
   3.79947      3.260578
   3.73628      3.301471
   3.67309      3.364923
   3.60990      3.493631
   3.54671      3.712092
   3.48352      3.937922
   3.42033      4.018599
   3.35714      3.982457
   3.29395      3.980370
   3.23076      4.050491
   3.16757      4.165193
   3.10438      4.290503
   3.04119      4.404647
   2.97800      4.485132
   2.91481      4.440064
   2.85162      4.469396
   2.78843      4.533946
   2.72524      4.556013
   2.72524      4.556013
   2.68560      4.548004
   2.64597      4.524760
   2.60633      4.487454
   2.56669      4.439267
   2.52705      4.383824
   2.48742      4.325810
   2.44778      4.276329
   2.40814      4.248475
   2.36850      4.238920
   2.32886      4.234706
   2.28923      4.231805
   2.24959      4.228154
   2.20995      4.223147
   2.17031      4.216792
   2.13068      4.209966
   2.09104      4.203952
   2.05140      4.199619
   2.01176      4.197581
   1.97212      4.198905
   1.97212      4.198905
   1.92828      4.204815
   1.88443      4.215076
   1.84059      4.229085
   1.79674      4.245680
   1.75290      4.262044
   1.70905      4.276840
   1.66521      4.288782
   1.62136      4.297151
   1.57752      4.302628
   1.53367      4.307905
   1.48983      4.317776
   1.44598      4.337819
   1.40214      4.373457
   1.35829      4.422713
   1.31445      4.477401
   1.27060      4.529109
   1.22676      4.570724
   1.18291      4.597875
   1.13907      4.607232
   1.13907      4.607232
   1.07912      4.583934
   1.01917      4.516347
   0.95922      4.407942
   0.89927      4.264959
   0.83931      4.095435
   0.77936      3.911511
   0.71941      3.811560
   0.65946      3.736443
   0.59951      3.710831
   0.53956      3.785259
   0.47961      3.873341
   0.41966      3.841660
   0.35971      3.628345
   0.29976      3.372591
   0.23980      3.320591
   0.17985      3.282868
   0.11990      3.252529
   0.05995      3.231430
   0.00000      3.223600
 
# Band-Index:   45
   0.00000      3.673379
   0.05995      3.700772
   0.11990      3.779215
   0.17985      3.901158
   0.23980      4.056454
   0.29976      4.234772
   0.35971      4.420247
   0.41966      4.300657
   0.47961      4.383403
   0.53956      4.621183
   0.59951      4.885087
   0.65946      5.145044
   0.71941      5.257800
   0.77936      5.229554
   0.83931      5.193925
   0.89927      5.163031
   0.95922      5.140277
   1.01917      5.125005
   1.07912      5.116557
   1.13907      5.113760
   1.13907      5.113759
   1.18291      5.111677
   1.22676      5.106117
   1.27060      5.097983
   1.31445      5.087012
   1.35829      5.074298
   1.40214      5.059724
   1.44598      5.042878
   1.48983      5.023083
   1.53367      5.000215
   1.57752      4.972938
   1.62136      4.942184
   1.66521      4.907588
   1.70905      4.871385
   1.75290      4.836120
   1.79674      4.805383
   1.84059      4.782244
   1.88443      4.770397
   1.92828      4.771908
   1.97212      4.786266
   1.97212      4.786265
   2.01176      4.807380
   2.05140      4.832243
   2.09104      4.852801
   2.13068      4.863525
   2.17031      4.862512
   2.20995      4.851068
   2.24959      4.833002
   2.28923      4.811028
   2.32886      4.787667
   2.36850      4.764843
   2.40814      4.742691
   2.44778      4.722261
   2.48742      4.704351
   2.52705      4.688572
   2.56669      4.675328
   2.60633      4.665519
   2.64597      4.658636
   2.68560      4.654558
   2.72524      4.653555
   2.72524      4.653555
   2.78843      4.647575
   2.85162      4.627231
   2.91481      4.592688
   2.97800      4.609763
   3.04119      4.738889
   3.10438      4.886278
   3.16757      5.036455
   3.23076      5.168105
   3.29395      4.931484
   3.35714      4.655899
   3.42033      4.405528
   3.48352      4.300930
   3.54671      4.285994
   3.60990      4.164152
   3.67309      4.012813
   3.73628      3.875346
   3.79947      3.766759
   3.86266      3.697448
   3.92585      3.673379
   3.92585      3.673379
   4.00933      3.722490
   4.09281      3.856225
   4.17629      4.050689
   4.25978      4.282037
   4.34326      4.270588
   4.42674      4.361996
   4.51023      4.706463
   4.59371      4.617478
   4.67719      4.535659
   4.76067      4.508327
   4.84416      4.502922
   4.92764      4.520121
   5.01112      4.554468
   5.09460      4.494531
   5.17809      4.265806
   5.26157      4.020514
   5.34505      3.813510
   5.42854      3.674556
   5.51202      3.625665
   5.51202      4.747135
   5.60639      4.763108
   5.70077      4.803755
   5.79515      4.865540
   5.88952      4.955031
   5.98390      5.043178
   6.07828      5.041326
   6.17265      4.911025
   6.26703      4.753241
   6.36141      4.768916
   6.45578      4.830405
   6.55016      4.912081
   6.64453      4.990151
   6.73891      4.680109
   6.83329      4.312230
   6.92766      4.335879
   7.02204      4.159855
   7.11642      3.914849
   7.21079      3.739879
   7.30517      3.673379
   7.30517      3.673379
   7.34809      3.685312
   7.39101      3.719306
   7.43393      3.773421
   7.47685      3.845083
   7.51976      3.931162
   7.56268      4.027936
   7.60560      4.131796
   7.64852      4.233291
   7.69144      4.298351
   7.73436      4.285076
   7.77728      4.253735
   7.82020      4.378206
   7.86312      4.520032
   7.90604      4.592967
   7.94896      4.584038
   7.99187      4.550568
   8.03479      4.524424
   8.07771      4.511166
   8.12063      4.507732
 
# Band-Index:   46
   8.12063      5.196044
   8.07771      5.178870
   8.03479      5.127983
   7.99187      5.048547
   7.94896      4.951470
   7.90604      4.862206
   7.86312      4.811665
   7.82020      4.749144
   7.77728      4.654262
   7.73436      4.551627
   7.69144      4.482225
   7.64852      4.498236
   7.60560      4.557132
   7.56268      4.624208
   7.51976      4.688527
   7.47685      4.742911
   7.43393      4.781712
   7.39101      4.801753
   7.34809      4.806356
   7.30517      4.805846
   7.30517      4.805846
   7.21079      4.811728
   7.11642      4.756237
   7.02204      4.584001
   6.92766      4.469281
   6.83329      4.761015
   6.73891      5.038629
   6.64453      5.108207
   6.55016      5.363483
   6.45578      5.555019
   6.36141      5.641770
   6.26703      5.655006
   6.17265      5.616649
   6.07828      5.505042
   5.98390      5.409103
   5.88952      5.357278
   5.79515      5.318405
   5.70077      5.269451
   5.60639      5.245835
   5.51202      5.240950
   5.51202      5.142701
   5.42854      5.118825
   5.34505      5.051817
   5.26157      4.954866
   5.17809      4.849677
   5.09460      4.783344
   5.01112      4.894836
   4.92764      4.934216
   4.84416      5.084786
   4.76067      5.173019
   4.67719      5.138644
   4.59371      4.975749
   4.51023      4.738984
   4.42674      4.729626
   4.34326      4.525572
   4.25978      4.434336
   4.17629      4.600083
   4.09281      4.734234
   4.00933      4.799826
   3.92585      4.805846
   3.92585      4.805846
   3.86266      4.816490
   3.79947      4.837014
   3.73628      4.836057
   3.67309      4.778668
   3.60990      4.672089
   3.54671      4.588954
   3.48352      4.659411
   3.42033      4.825439
   3.35714      5.005466
   3.29395      5.167749
   3.23076      5.210662
   3.16757      5.453878
   3.10438      5.648868
   3.04119      5.781058
   2.97800      5.901591
   2.91481      6.011452
   2.85162      6.102194
   2.78843      6.163207
   2.72524      6.182958
   2.72524      6.182525
   2.68560      6.175965
   2.64597      6.158198
   2.60633      6.128801
   2.56669      6.085434
   2.52705      6.020055
   2.48742      5.945947
   2.44778      5.866779
   2.40814      5.785301
   2.36850      5.704670
   2.32886      5.626143
   2.28923      5.551781
   2.24959      5.484632
   2.20995      5.425413
   2.17031      5.374926
   2.13068      5.333026
   2.09104      5.300059
   2.05140      5.274684
   2.01176      5.254951
   1.97212      5.239895
   1.97212      5.239913
   1.92828      5.229295
   1.88443      5.225930
   1.84059      5.232139
   1.79674      5.248365
   1.75290      5.274936
   1.70905      5.313802
   1.66521      5.366666
   1.62136      5.432552
   1.57752      5.510224
   1.53367      5.596903
   1.48983      5.690703
   1.44598      5.785968
   1.40214      5.840804
   1.35829      5.883128
   1.31445      5.917955
   1.27060      5.946270
   1.22676      5.966505
   1.18291      5.978370
   1.13907      5.982449
   1.13907      5.982441
   1.07912      5.975871
   1.01917      5.955324
   0.95922      5.920145
   0.89927      5.870044
   0.83931      5.804935
   0.77936      5.615039
   0.71941      5.392439
   0.65946      5.241634
   0.59951      5.148966
   0.53956      4.999701
   0.47961      4.819648
   0.41966      4.624994
   0.35971      4.427213
   0.29976      4.589164
   0.23980      4.734748
   0.17985      4.815039
   0.11990      4.828756
   0.05995      4.814582
   0.00000      4.805846
 
# Band-Index:   47
   0.00000      5.374740
   0.05995      5.405327
   0.11990      5.420459
   0.17985      5.382015
   0.23980      5.377289
   0.29976      5.425008
   0.35971      5.506736
   0.41966      5.604680
   0.47961      5.708045
   0.53956      5.718237
   0.59951      5.645411
   0.65946      5.617416
   0.71941      5.655639
   0.77936      5.729048
   0.83931      5.809389
   0.89927      5.966743
   0.95922      6.082605
   1.01917      6.158786
   1.07912      6.198878
   1.13907      6.210258
   1.13907      6.210347
   1.18291      6.199257
   1.22676      6.166687
   1.27060      6.115934
   1.31445      6.048486
   1.35829      5.968580
   1.40214      5.879978
   1.44598      5.792860
   1.48983      5.740431
   1.53367      5.686142
   1.57752      5.631768
   1.62136      5.579402
   1.66521      5.531138
   1.70905      5.488715
   1.75290      5.451652
   1.79674      5.420268
   1.84059      5.392568
   1.88443      5.368013
   1.92828      5.345062
   1.97212      5.324097
   1.97212      5.324087
   2.01176      5.309626
   2.05140      5.303301
   2.09104      5.309925
   2.13068      5.334861
   2.17031      5.379305
   2.20995      5.440482
   2.24959      5.512995
   2.28923      5.592050
   2.32886      5.674104
   2.36850      5.756058
   2.40814      5.834587
   2.44778      5.909448
   2.48742      5.977456
   2.52705      6.037245
   2.56669      6.089948
   2.60633      6.140056
   2.64597      6.181925
   2.68560      6.206954
   2.72524      6.215787
   2.72524      6.215729
   2.78843      6.204485
   2.85162      6.167385
   2.91481      6.105327
   2.97800      6.009610
   3.04119      5.871217
   3.10438      5.691603
   3.16757      5.528842
   3.23076      5.392312
   3.29395      5.382620
   3.35714      5.501048
   3.42033      5.601871
   3.48352      5.614460
   3.54671      5.538916
   3.60990      5.455165
   3.67309      5.400912
   3.73628      5.397818
   3.79947      5.427552
   3.86266      5.405581
   3.92585      5.374742
   3.92585      5.374740
   4.00933      5.439740
   4.09281      5.492368
   4.17629      5.507614
   4.25978      5.527008
   4.34326      5.374214
   4.42674      5.156939
   4.51023      5.149319
   4.59371      5.275819
   4.67719      5.358511
   4.76067      5.356637
   4.84416      5.265112
   4.92764      5.099799
   5.01112      4.899264
   5.09460      5.084110
   5.17809      5.368261
   5.26157      5.668427
   5.34505      5.675235
   5.42854      5.394546
   5.51202      5.279427
   5.51202      5.326119
   5.60639      5.328785
   5.70077      5.332964
   5.79515      5.357261
   5.88952      5.434690
   5.98390      5.522319
   6.07828      5.590463
   6.17265      5.654919
   6.26703      5.735268
   6.36141      5.742526
   6.45578      5.666746
   6.55016      5.531094
   6.64453      5.342992
   6.73891      5.272230
   6.83329      5.468331
   6.92766      5.563135
   7.02204      5.481394
   7.11642      5.446470
   7.21079      5.436122
   7.30517      5.374740
   7.30517      5.374740
   7.34809      5.392814
   7.39101      5.440320
   7.43393      5.481866
   7.47685      5.499394
   7.51976      5.511006
   7.56268      5.522698
   7.60560      5.535549
   7.64852      5.547265
   7.69144      5.475581
   7.73436      5.337761
   7.77728      5.211800
   7.82020      5.115213
   7.86312      5.079443
   7.90604      5.116784
   7.94896      5.184335
   7.99187      5.249986
   8.03479      5.302138
   8.07771      5.334883
   8.12063      5.346008
 
# Band-Index:   48
   8.12063      5.911294
   8.07771      5.897929
   8.03479      5.865548
   7.99187      5.821193
   7.94896      5.776504
   7.90604      5.733959
   7.86312      5.694630
   7.82020      5.659013
   7.77728      5.627589
   7.73436      5.600866
   7.69144      5.581260
   7.64852      5.638516
   7.60560      5.785575
   7.56268      5.983804
   7.51976      5.900385
   7.47685      5.744545
   7.43393      5.611959
   7.39101      5.540069
   7.34809      5.520557
   7.30517      5.516502
   7.30517      5.516500
   7.21079      5.538782
   7.11642      5.815265
   7.02204      5.973143
   6.92766      5.719790
   6.83329      5.678925
   6.73891      5.791990
   6.64453      5.901388
   6.55016      5.997200
   6.45578      6.064981
   6.36141      6.090615
   6.26703      6.077121
   6.17265      6.051606
   6.07828      6.041868
   5.98390      6.070238
   5.88952      6.121037
   5.79515      6.124903
   5.70077      6.004604
   5.60639      5.679241
   5.51202      5.526171
   5.51202      5.850238
   5.42854      5.845902
   5.34505      5.850429
   5.26157      5.830899
   5.17809      5.834428
   5.09460      5.852736
   5.01112      5.889843
   4.92764      5.955841
   4.84416      6.065846
   4.76067      5.964761
   4.67719      5.853269
   4.59371      5.754788
   4.51023      5.671601
   4.42674      5.605939
   4.34326      5.558474
   4.25978      5.654543
   4.17629      5.942216
   4.09281      5.744933
   4.00933      5.538945
   3.92585      5.516500
   3.92585      5.516500
   3.86266      5.509265
   3.79947      5.563786
   3.73628      5.747384
   3.67309      6.002453
   3.60990      6.066584
   3.54671      5.959953
   3.48352      5.875680
   3.42033      5.883198
   3.35714      5.979043
   3.29395      6.081146
   3.23076      6.132976
   3.16757      6.096019
   3.10438      6.151826
   3.04119      6.226355
   2.97800      6.321731
   2.91481      6.401968
   2.85162      6.479927
   2.78843      6.589065
   2.72524      6.552201
   2.72524      6.540317
   2.68560      6.530040
   2.64597      6.517793
   2.60633      6.502013
   2.56669      6.494736
   2.52705      6.439133
   2.48742      6.405544
   2.44778      6.360576
   2.40814      6.324227
   2.36850      6.275814
   2.32886      6.232523
   2.28923      6.194343
   2.24959      6.153167
   2.20995      6.114243
   2.17031      6.075293
   2.13068      6.021604
   2.09104      5.928163
   2.05140      5.782199
   2.01176      5.641017
   1.97212      5.547952
   1.97212      5.547890
   1.92828      5.520949
   1.88443      5.577549
   1.84059      5.707933
   1.79674      5.884899
   1.75290      6.001191
   1.70905      6.045636
   1.66521      6.074938
   1.62136      6.103592
   1.57752      6.134160
   1.53367      6.167542
   1.48983      6.203245
   1.44598      6.238838
   1.40214      6.272886
   1.35829      6.305582
   1.31445      6.333036
   1.27060      6.355197
   1.22676      6.370790
   1.18291      6.380296
   1.13907      6.383309
   1.13907      6.383712
   1.07912      6.374635
   1.01917      6.349676
   0.95922      6.310638
   0.89927      6.269193
   0.83931      6.215582
   0.77936      6.149788
   0.71941      6.078687
   0.65946      6.000446
   0.59951      5.907962
   0.53956      5.810298
   0.47961      5.808011
   0.41966      5.902779
   0.35971      6.001476
   0.29976      6.102761
   0.23980      6.010884
   0.17985      5.750691
   0.11990      5.564149
   0.05995      5.507886
   0.00000      5.516500
